"Time (s)","Acceleration x (m/s^2)","Acceleration y (m/s^2)","Acceleration z (m/s^2)"
4.626965600E-2,6.556333899E-1,1.708475351E0,9.719645500E0
5.595366700E-2,5.790630579E-1,1.555334687E0,9.762716293E0
6.563720800E-2,5.120640397E-1,1.450050473E0,9.911071777E0
7.532111500E-2,5.072783828E-1,1.392622828E0,9.963713646E0
8.500455200E-2,5.886343718E-1,1.359123230E0,9.858428955E0
9.468840600E-2,7.130611539E-1,1.373480201E0,9.848857880E0
1.043731460E-1,8.087740541E-1,1.383051515E0,9.772287369E0
1.140561670E-1,7.226324677E-1,1.406979680E0,9.695717812E0
1.237390310E-1,6.364908218E-1,1.517049551E0,9.777072906E0
1.334229900E-1,5.790630579E-1,1.603191137E0,9.834501266E0
1.431078850E-1,5.551348329E-1,1.607976794E0,9.805787086E0
1.527917920E-1,6.795616150E-1,1.478764415E0,9.772287369E0
1.624761670E-1,8.231309652E-1,1.368694544E0,9.729216576E0
1.721618960E-1,8.709874153E-1,1.325623751E0,9.786644936E0
1.818455420E-1,7.034898400E-1,1.454836130E0,9.906285286E0
1.915314790E-1,5.264210105E-1,1.531406522E0,9.930213928E0
2.012160100E-1,5.216353536E-1,1.584048629E0,9.934999466E0
2.109003330E-1,5.647061467E-1,1.588834286E0,9.944570541E0
2.205824170E-1,6.891329288E-1,1.435693622E0,9.872786522E0
2.302650730E-1,7.657032609E-1,1.373480201E0,9.834501266E0
2.399487710E-1,7.800601721E-1,1.435693622E0,9.911071777E0
2.496315830E-1,8.422735929E-1,1.464407444E0,9.963713646E0
2.593167400E-1,8.566305041E-1,1.584048629E0,9.915857315E0
2.690011150E-1,7.322037220E-1,1.655833244E0,9.934999466E0
2.786848650E-1,5.168496966E-1,1.751546144E0,1.008814049E1
2.883689790E-1,4.211367965E-1,1.852044702E0,1.041835022E1
2.980526250E-1,5.264210105E-1,2.062613010E0,1.088734341E1
3.077371560E-1,6.412764788E-1,2.182254314E0,1.091605663E1
3.174217400E-1,4.689932466E-1,2.163111687E0,1.064806080E1
3.271071560E-1,3.876372576E-1,2.014756680E0,1.031306553E1
3.367912710E-1,2.679961324E-1,1.899901152E0,1.020299530E1
3.464751770E-1,3.254238665E-1,1.483550072E0,1.083948612E1
3.561605420E-1,9.619147182E-1,1.320838094E0,1.054756260E1
3.658449170E-1,7.800601721E-1,1.813759565E0,1.070548820E1
3.755281980E-1,8.135597110E-1,1.852044702E0,1.031306553E1
3.852128850E-1,8.997012973E-1,1.741974831E0,9.944570541E0
3.948979900E-1,8.805587292E-1,1.794616938E0,9.671789169E0
4.045808540E-1,8.327022791E-1,1.813759565E0,9.714859962E0
4.142651770E-1,7.417750359E-1,1.789831281E0,9.781859398E0
4.239495520E-1,6.221339107E-1,1.698904037E0,9.714859962E0
4.336350210E-1,5.503492355E-1,1.550549030E0,9.834501266E0
4.433215830E-1,5.120640397E-1,1.430907965E0,1.003071213E1
4.530067400E-1,3.397808075E-1,1.392622828E0,1.007378292E1
4.626931460E-1,2.201396823E-1,1.287338614E0,1.038485050E1
4.723790310E-1,1.962114573E-1,1.301695466E0,1.064806080E1
4.820633540E-1,1.387837082E-1,1.531406522E0,1.063370419E1
4.917480420E-1,9.571290761E-2,1.703689694E0,1.033220863E1
5.014335100E-1,1.244267747E-1,1.674975872E0,1.020778179E1
5.111177810E-1,1.531406492E-1,1.718046665E0,1.009771156E1
5.208040310E-1,2.584248483E-1,1.789831281E0,1.005942631E1
5.304904900E-1,4.067798555E-1,1.866401672E0,9.978070259E0
5.401749690E-1,4.929214716E-1,1.871187329E0,9.844072342E0
5.498596040E-1,5.120640397E-1,1.785045743E0,9.829715729E0
5.595441350E-1,5.551348329E-1,1.770688772E0,9.762716293E0
5.692287710E-1,5.120640397E-1,1.804188251E0,9.844072342E0
5.789143440E-1,4.929214716E-1,1.789831281E0,9.930213928E0
5.885981980E-1,4.450650215E-1,1.751546144E0,9.906285286E0
5.982823130E-1,4.785645306E-1,1.569691658E0,9.662218094E0
6.079669480E-1,1.493121386E0,7.561319470E-1,8.695517540E0
6.176531980E-1,4.019941986E-1,2.455035925E0,9.824930191E0
6.273374170E-1,1.378265858E0,1.861616015E0,9.537791252E0
6.370221560E-1,9.858429432E-1,1.392622828E0,1.021256733E1
6.467077810E-1,1.464407444E0,6.460621357E-1,9.657432556E0
6.563937190E-1,1.531406522E0,6.317051649E-1,9.097511292E0
6.660793440E-1,1.292124271E0,9.188438654E-1,9.016156197E0
6.757655420E-1,9.236295223E-1,1.354337573E0,9.236295700E0
6.854515310E-1,7.369893789E-1,1.512263894E0,9.446864128E0
6.951367400E-1,7.226324677E-1,1.201196909E0,9.595218658E0
7.048223130E-1,5.551348329E-1,7.178468108E-1,9.470791817E0
7.145077290E-1,6.795616150E-1,-1.196411327E-1,9.528220177E0
7.241937710E-1,2.584248483E-1,4.785645287E-3,9.308079720E0
7.338776770E-1,2.105683982E-1,-5.742774159E-2,9.279366493E0
7.435619480E-1,4.115654826E-1,-6.221338734E-2,9.552147865E0
7.532472080E-1,2.536391914E-1,4.833501875E-1,9.710074425E0
7.629320000E-1,-1.531406492E-1,8.374879360E-1,1.000678444E1
7.726176770E-1,-1.627119333E-1,1.435693540E-2,1.122233772E1
7.823021040E-1,-3.493520916E-1,-2.775674164E-1,1.178225899E1
7.919860100E-1,-1.531406492E-1,-2.967100143E-1,1.110748291E1
8.016704380E-1,4.689932466E-1,-8.614161611E-1,9.906285286E0
8.113547080E-1,1.674975902E-1,-3.445664644E-1,9.427721024E0
8.210385100E-1,-2.488535494E-1,5.742774606E-1,8.834300995E0
8.307228850E-1,-1.962114573E-1,1.067198873E0,9.126225471E0
8.404080420E-1,2.392822690E-2,1.713261008E0,9.528220177E0
8.500924690E-1,3.302095234E-1,1.962114573E0,9.868000984E0
8.597772600E-1,6.652047038E-1,1.770688772E0,9.781859398E0
8.694621040E-1,1.153340459E0,1.737189293E0,9.126225471E0
8.791465310E-1,1.804188251E0,9.667003751E-1,8.274380684E0
8.888316880E-1,2.134397745E0,4.785645306E-1,7.532605648E0
8.985148650E-1,2.000399828E0,5.694918036E-1,7.192824841E0
9.081986150E-1,1.770688772E0,1.129412293E0,7.087540627E0
9.178836670E-1,1.325623751E0,1.737189293E0,6.881757736E0
9.275673650E-1,1.071984529E0,2.019542217E0,6.738188744E0
9.372512710E-1,9.762716293E-1,1.947757602E0,7.542177200E0
9.469374170E-1,8.757730722E-1,1.502692580E0,9.528220177E0
9.566225730E-1,7.226324677E-1,7.609176040E-1,1.134197903E1
9.663078850E-1,2.440679073E-1,-1.062413216E0,1.298345566E1
9.759925210E-1,-2.201396823E-1,-1.952543259E0,1.296909904E1
9.856771040E-1,6.077769399E-1,-4.689932466E-1,1.109791183E1
9.953625730E-1,1.799402595E0,1.268195987E0,9.906285286E0
1.005047313E0,2.081755638E0,1.718046665E0,9.982855797E0
1.014732365E0,2.277967215E0,1.674975872E0,9.145368576E0
1.024417260E0,2.761317253E0,1.215553880E0,8.322237015E0
1.034101531E0,2.837887764E0,1.062413216E0,7.613961697E0
1.043786323E0,3.110669374E0,7.848458290E-1,7.647460938E0
1.053471583E0,3.134597778E0,4.498506486E-1,8.049455643E0
1.063156219E0,2.876172781E0,2.871387303E-1,9.073583603E0
1.072839760E0,2.512463808E0,1.770688742E-1,9.997213364E0
1.082522833E0,2.311466694E0,-9.092725813E-2,1.042313576E1
1.092205177E0,2.057827473E0,-2.249253243E-1,1.041356373E1
1.101891063E0,2.134397745E0,-6.269195080E-1,1.027956581E1
1.111574656E0,2.249253273E0,-1.081555843E0,1.050449181E1
1.121259760E0,2.383251429E0,-1.320838094E0,1.086341476E1
1.130946219E0,2.622533560E0,-1.540977836E0,1.205504036E1
1.140633979E0,2.746960402E0,-1.670190215E0,1.332802200E1
1.150319500E0,2.991028309E0,-1.727617979E0,1.428036594E1
1.160004760E0,3.125026464E0,-1.679761529E0,1.422772312E1
1.169690594E0,2.962314367E0,-8.757730722E-1,1.339502144E1
1.179376115E0,3.306880951E0,-6.221339107E-1,1.223210907E1
1.189062208E0,3.838087559E0,-8.662018180E-1,1.096869946E1
1.198748302E0,4.019941807E0,-1.004985452E0,1.100219822E1
1.208434135E0,3.656233072E0,1.004985496E-1,1.088734341E1
1.218120021E0,4.082155228E0,7.082754970E-1,1.120319557E1
1.227804500E0,3.431307554E0,2.670390129E0,1.174875927E1
1.237488354E0,2.775674343E0,4.259224415E0,7.934599876E0
1.247172938E0,4.177868366E0,4.536791801E0,5.670989513E0
1.256855333E0,5.431707382E0,4.278367043E0,6.254838467E0
1.266539552E0,5.465207100E0,4.407579422E0,5.910272121E0
1.276225490E0,5.058426857E0,3.986442566E0,6.192625046E0
1.285909604E0,4.474578381E0,3.144168854E0,6.384050846E0
1.295594917E0,4.106083870E0,2.292324066E0,6.642475605E0
1.305280438E0,4.197010994E0,1.636690736E0,6.407979012E0
1.314964969E0,4.192225456E0,1.416550994E0,6.072983742E0
1.324650073E0,4.225724697E0,1.962114573E0,5.785845280E0
1.334334188E0,4.240081787E0,3.038884640E0,5.249852657E0
1.344019865E0,4.618147850E0,4.445864677E0,4.374079704E0
1.353704656E0,4.991427898E0,5.790630817E0,3.622733593E0
1.363389188E0,4.364508629E0,6.848258495E0,4.063013077E0
1.373074552E0,4.134797573E0,6.250052929E0,6.211767673E0
1.382759552E0,3.909872293E0,4.450650215E0,7.781459332E0
1.392445750E0,5.785845280E0,2.297109842E0,7.996813297E0
1.402130750E0,7.829315662E0,1.186840057E0,7.963313580E0
1.411815594E0,7.216753006E0,1.928615093E0,7.202396393E0
1.421500177E0,7.188039303E0,1.914258122E0,6.656832695E0
1.431187469E0,6.695117950E0,2.579462767E0,7.077969551E0
1.440872313E0,7.283751965E0,2.976671457E0,7.465606689E0
1.450557469E0,7.508677483E0,2.837887764E0,7.633104324E0
1.460242052E0,7.221538544E0,1.244267821E0,7.843672752E0
1.469927365E0,6.618547440E0,7.369893789E-1,7.666603565E0
1.479612417E0,5.699703693E0,7.513462901E-1,8.030312538E0
1.489297885E0,5.053641319E0,1.239482164E0,7.934599876E0
1.498982729E0,4.460221291E0,1.775474429E0,8.020741463E0
1.508667938E0,4.747360229E0,1.722832322E0,7.082755089E0
1.518353563E0,6.039484501E0,2.258824587E0,5.513063431E0
1.528038042E0,6.738188744E0,2.478964329E0,3.862015724E0
1.537721427E0,7.173682213E0,1.813759565E0,3.081955671E0
1.547405802E0,6.853044033E0,1.550549030E0,4.024727821E0
1.557090594E0,6.235695839E0,1.004985452E0,6.723831654E0
1.566774552E0,6.374479294E0,-4.977070987E-1,8.260024071E0
1.576459448E0,6.776473522E0,-1.138983607E0,7.657032490E0
1.586143302E0,7.164111137E0,-3.302095234E-1,5.843272686E0
1.595827469E0,7.058826923E0,8.757730722E-1,4.795216560E0
1.605512156E0,6.920042992E0,1.804188251E0,4.584648132E0
1.615197990E0,6.953542709E0,1.832902193E0,6.187839508E0
1.624884708E0,7.211967468E0,1.182054400E0,7.982456207E0
1.634567260E0,7.283751965E0,2.919243574E-1,8.149953842E0
1.644251844E0,7.389036179E0,-6.939185858E-1,6.929614544E0
1.653934813E0,7.235895634E0,-4.737788737E-1,4.699503899E0
1.663619448E0,7.192824841E0,-2.153540403E-1,3.005385160E0
1.673303250E0,7.532605648E0,1.674975902E-1,2.794816732E0
1.682988458E0,7.628318787E0,9.332008362E-1,3.780659676E0
1.692673094E0,7.920242786E0,8.709874153E-1,5.388636589E0
1.702357781E0,8.317451477E0,2.536391914E-1,6.412764549E0
1.712041688E0,8.422736168E0,-1.818545163E-1,6.082555294E0
1.721724917E0,8.374878883E0,-4.594219327E-1,4.934000492E0
1.731409552E0,8.164310455E0,-2.967100143E-1,3.603590965E0
1.741093667E0,8.169096947E0,1.674975902E-1,3.077169895E0
1.750778719E0,8.188239098E0,6.173482537E-1,3.182454109E0
1.760462885E0,8.197810173E0,1.421336651E0,4.173082829E0
1.770146167E0,8.470592499E0,1.359123230E0,4.833501816E0
1.779828198E0,8.958727837E0,1.167697430E0,4.766502857E0
1.789512313E0,9.327222824E0,9.332008362E-1,4.450650215E0
1.799196375E0,9.796216011E0,5.024927258E-1,4.780859470E0
1.808880333E0,1.001156998E1,4.115654826E-1,5.235496044E0
1.818564656E0,1.035135078E1,1.674975902E-1,5.082355499E0
1.828250698E0,1.047577763E1,9.092725813E-2,4.091726780E0
1.837935542E0,1.015513897E1,-2.297109663E-1,2.991028309E0
1.847619708E0,9.734002113E0,-1.531406492E-1,2.081755638E0
1.857305073E0,8.925228119E0,5.742774159E-2,1.665404558E0
1.866988979E0,8.379665375E0,9.571290761E-2,1.785045743E0
1.876672781E0,8.293522835E0,4.737788737E-1,2.206182480E0
1.886356635E0,9.025727272E0,5.072783828E-1,3.220739365E0
1.896040854E0,9.786644936E0,4.737788737E-1,3.574877024E0
1.905726063E0,1.004506969E1,5.168496966E-1,3.823730469E0
1.915409865E0,9.834501266E0,3.493520916E-1,3.517449379E0
1.925094500E0,9.609575272E0,3.302095234E-1,3.397808075E0
1.934779240E0,9.547362328E0,3.684946895E-1,2.933600664E0
1.944464500E0,9.528220177E0,9.284151793E-1,2.593819857E0
1.954149083E0,9.370293617E0,1.014556766E0,2.416750908E0
1.963834031E0,9.236295700E0,1.856830359E0,2.785245657E0
1.973518719E0,9.379864693E0,2.416750908E0,2.986242771E0
1.983203146E0,9.470791817E0,2.627319336E0,3.043670416E0
1.992887052E0,9.437292099E0,2.646461725E0,3.560520172E0
2.002571688E0,9.413364410E0,2.263610125E0,3.684946775E0
2.012256635E0,9.332008362E0,1.631905079E0,3.206382275E0
2.021939135E0,9.087940216E0,1.421336651E0,2.837887764E0
2.031622990E0,8.772088051E0,1.971685886E0,3.038884640E0
2.041307260E0,1.004028416E1,3.919443607E0,1.722832322E0
2.050992521E0,8.915657043E0,9.188438654E-1,1.464407444E0
2.060677885E0,8.528019905E0,9.762716293E-1,2.723032236E0
2.070363198E0,8.848658562E0,8.279166222E-1,5.063212872E0
2.080047521E0,9.963713646E0,4.307080805E-1,5.158925533E0
2.089732990E0,1.144726372E1,-2.105683982E-1,4.134797573E0
2.099418250E0,1.171047401E1,3.828516304E-1,3.550948858E0
2.109104135E0,1.100698376E1,1.225125194E0,3.115455151E0
2.118789188E0,9.891928673E0,1.540977836E0,3.613162279E0
2.128472208E0,8.872586250E0,1.459621787E0,3.402593851E0
2.138156479E0,7.968099594E0,1.402194023E0,3.091526747E0
2.147840906E0,7.862815380E0,8.566305041E-1,2.641676188E0
2.157525333E0,9.111868858E0,5.551348329E-1,7.609176040E-1
2.167211531E0,8.647661209E0,-1.086341500E0,1.086341500E0
2.176896583E0,8.882157326E0,-9.044869542E-1,1.138983607E0
2.186581583E0,9.217152596E0,-7.896314859E-1,2.517249346E0
2.196264917E0,9.619147301E0,-7.082754970E-1,4.187439442E0
2.205949344E0,9.954142570E0,-4.642075896E-1,5.182853699E0
2.215633875E0,9.786644936E0,2.871387079E-2,4.737788677E0
2.225319604E0,9.236295700E0,6.843472719E-1,2.699103832E0
2.235005021E0,9.360722542E0,4.115654826E-1,1.952543259E0
2.244690229E0,9.226723671E0,3.158525825E-1,2.325823545E0
2.254373094E0,9.293723106E0,0.000000000E0,3.062813044E0
2.264055906E0,8.863015175E0,6.412764788E-1,3.991228104E0
2.273739708E0,8.724231720E0,8.422735929E-1,3.751945972E0
2.283422625E0,9.097511292E0,7.657032460E-2,3.656233072E0
2.293106792E0,9.552147865E0,-1.722832322E-1,5.130211830E0
2.302791219E0,1.042792130E1,-1.234696507E0,4.776073933E0
2.312475333E0,1.033220863E1,-7.130611539E-1,4.331008911E0
2.322159292E0,9.164510727E0,3.014956415E-1,3.340380430E0
2.331844292E0,8.169096947E0,1.249053478E0,3.058027267E0
2.341528146E0,8.135597229E0,2.009970903E0,2.579462767E0
2.351213771E0,8.824729919E0,2.062613010E0,1.761117458E0
2.360899344E0,9.437292099E0,1.450050473E0,7.657032609E-1
2.370585802E0,9.446864128E0,9.810572863E-1,-5.072783828E-1
2.380270490E0,1.000678444E1,7.465606928E-1,-1.339980662E-1
2.389954240E0,1.023170948E1,4.546363056E-1,3.349951655E-2
2.399638719E0,9.944570541E0,5.407779217E-1,3.780659735E-1
2.409322833E0,9.805787086E0,3.062812984E-1,1.138983607E0
2.419007469E0,9.628718376E0,6.317051649E-1,1.871187329E0
2.428691063E0,9.312865257E0,1.368694544E0,2.024327993E0
2.438375854E0,9.140582085E0,1.947757602E0,1.895115495E0
2.448061010E0,9.188439369E0,2.220539331E0,1.588834286E0
2.457746375E0,9.255437851E0,1.598405480E0,1.253839016E0
2.467430854E0,9.332008362E0,8.949156404E-1,9.954141974E-1
2.477114604E0,9.284152031E0,6.891329288E-1,5.120640397E-1
2.486799396E0,9.245866776E0,3.445664644E-1,4.881358147E-1
2.496484865E0,9.341579437E0,2.919243574E-1,7.274180651E-1
2.506170333E0,9.647860527E0,-1.339980662E-1,1.531406492E-1
2.515855958E0,9.528220177E0,-1.818545163E-1,-3.158525825E-1
2.525539917E0,9.178867340E0,2.392822690E-2,-3.493520916E-1
2.535225646E0,8.738588333E0,3.254238665E-1,1.914258115E-2
2.544913250E0,9.901499748E0,4.173082829E0,2.431107712E1
2.554598198E0,9.111868858E0,-1.478764415E0,1.421336651E0
2.564283615E0,8.958727837E0,-1.148554832E-1,-5.647061467E-1
2.573969552E0,8.135597229E0,-1.674975902E-1,9.097511292E0
2.583656010E0,7.460821152E0,9.667003751E-1,2.857030153E0
2.593340750E0,7.972885132E0,-6.221338734E-2,2.139183521E0
2.603027260E0,9.265008926E0,3.589234054E-1,1.718046665E0
2.612711479E0,1.006899738E1,6.221338734E-2,2.694318295E0
2.622395958E0,1.002592659E1,2.105683982E-1,2.426322222E0
2.632082781E0,9.107083321E0,8.853443861E-1,2.254039049E0
2.641768354E0,8.044670105E0,1.574477315E0,2.541177750E0
2.651454396E0,7.350750923E0,2.172683001E0,2.857030153E0
2.661138771E0,6.972685337E0,2.517249346E0,3.220739365E0
2.670823927E0,7.082755089E0,2.196611166E0,3.086741209E0
2.680508563E0,1.914736748E1,-6.005984783E0,4.077369690E0
2.690194188E0,6.077769279E0,1.249053478E0,4.819144726E0
2.699880333E0,1.193539906E1,-2.182254314E0,1.004985452E0
2.709566792E0,8.953942299E0,-3.828516304E-1,3.924229145E-1
2.719253875E0,9.547362328E0,-4.259224236E-1,-6.699903309E-2
2.728939813E0,9.375079155E0,-2.440679073E-1,-3.302095234E-1
2.738625802E0,9.580862045E0,9.571290575E-3,1.593619823E0
2.748311531E0,9.724431038E0,-1.004985496E-1,1.521835208E0
2.757996375E0,9.628718376E0,-7.178468257E-2,1.875972986E0
2.767681740E0,9.571290970E0,5.264209956E-2,2.751745939E0
2.777367000E0,9.566504478E0,2.057827413E-1,2.368894339E0
2.787052885E0,9.619147301E0,8.614161611E-2,1.871187329E0
2.796737625E0,9.451649666E0,5.264209956E-2,1.306481123E0
2.806423198E0,9.494720459E0,6.221338734E-2,7.178468108E-1
2.816107885E0,9.609575272E0,3.828516230E-2,1.445264935E0
2.825792260E0,9.614361763E0,1.435693540E-2,1.493121386E0
2.835476115E0,9.633503914E0,4.307080805E-2,1.296909928E0
2.845160594E0,9.623932838E0,4.307080805E-2,1.426122308E0
2.854845177E0,9.585647583E0,-4.785645287E-3,1.540977836E0
2.864530073E0,9.590433121E0,9.571290575E-3,1.378265858E0
2.874215021E0,9.614361763E0,0.000000000E0,1.588834286E0
2.883900229E0,9.585647583E0,-4.307080805E-2,3.158525944E0
2.893584031E0,9.427721024E0,4.785645287E-3,2.378465652E0
2.903269292E0,9.714859962E0,-1.100698411E-1,1.694118381E0
2.912955854E0,9.738788605E0,1.818545163E-1,2.301895380E0
2.922640490E0,9.734002113E0,-1.914258115E-2,1.636690736E0
2.932324969E0,9.796216011E0,2.871387079E-2,1.550549030E0
2.942008979E0,9.762716293E0,1.579262912E-1,1.469193101E0
2.951693094E0,9.930213928E0,8.135596663E-2,1.411765337E0
2.961378198E0,9.595218658E0,-1.435693540E-2,1.368694544E0
2.971063979E0,9.714859962E0,-2.823530734E-1,1.239482164E0
2.980749083E0,9.848857880E0,-1.531406492E-1,1.162911773E0
2.990433146E0,9.523433685E0,1.962114573E-1,1.062413216E0
3.000116635E0,9.370293617E0,5.838487148E-1,1.148554921E0
3.009801427E0,9.346364975E0,7.992027402E-1,1.124626637E0
3.019486948E0,9.446864128E0,7.800601721E-1,8.997012973E-1
3.029172000E0,9.614361763E0,7.417750359E-1,7.944171429E-1
3.038857208E0,9.633503914E0,3.062812984E-1,8.135597110E-1
3.048542833E0,9.657432556E0,-1.244267747E-1,7.561319470E-1
3.058227677E0,9.638289452E0,-5.886343718E-1,8.231309652E-1
3.067911844E0,9.681360245E0,-5.264210105E-1,5.790630579E-1
3.077597260E0,9.714859962E0,-3.828516304E-1,5.934200287E-1
3.087282573E0,9.738788605E0,-3.924229145E-1,6.364908218E-1
3.096966948E0,9.743574142E0,-5.072783828E-1,2.057827413E-1
3.106652677E0,9.791430473E0,-2.153540403E-1,3.972085714E-1
3.116337885E0,9.652647018E0,1.866401732E-1,7.896314859E-1
3.126022677E0,9.767501831E0,2.440679073E-1,3.972085714E-1
3.135706688E0,9.695717812E0,3.828516304E-1,2.679961324E-1
3.145390333E0,9.930213928E0,5.024927258E-1,2.297109663E-1
3.155074813E0,9.466006279E0,-2.871387079E-2,-1.100698471E0
3.164760073E0,9.729216576E0,-9.906286001E-1,1.818545222E0
3.174445021E0,9.566504478E0,-6.604190469E-1,-1.483550072E-1
3.184129969E0,9.738788605E0,2.392822690E-2,6.699903309E-2
3.193815802E0,9.734002113E0,4.785645287E-3,9.571290761E-2
3.203501792E0,9.743574142E0,0.000000000E0,6.221338734E-2
3.213186323E0,9.738788605E0,-9.571290575E-3,8.135596663E-2
3.222873146E0,9.734002113E0,-9.571290575E-3,1.052841991E-1
3.232558667E0,9.724431038E0,0.000000000E0,5.742774159E-2
3.242243979E0,9.729216576E0,1.435693540E-2,9.571290761E-2
3.251931167E0,9.724431038E0,-9.571290575E-3,1.004985496E-1
3.261617990E0,9.734002113E0,-4.785645287E-3,7.657032460E-2
3.271303250E0,9.719645500E0,-4.785645287E-3,9.092725813E-2
3.280989344E0,9.743574142E0,4.785645287E-3,7.178468257E-2
3.290674813E0,9.719645500E0,4.785645287E-3,1.196411327E-1
3.300359760E0,9.724431038E0,0.000000000E0,5.742774159E-2
3.310045490E0,9.748359680E0,-9.571290575E-3,5.264209956E-2
3.319731531E0,9.743574142E0,4.785645287E-3,7.178468257E-2
3.329418146E0,9.738788605E0,4.785645287E-3,8.135596663E-2
3.339105281E0,9.729216576E0,0.000000000E0,6.221338734E-2
3.348790802E0,9.734002113E0,9.571290575E-3,7.657032460E-2
3.358477521E0,9.738788605E0,1.435693540E-2,4.785645381E-2
3.368161635E0,9.729216576E0,9.571290575E-3,9.571290761E-2
3.377845385E0,9.729216576E0,9.571290575E-3,1.004985496E-1
3.387530438E0,9.738788605E0,-4.785645287E-3,7.657032460E-2
3.397214292E0,9.738788605E0,1.435693540E-2,1.435693540E-2
3.406899188E0,9.738788605E0,0.000000000E0,9.092725813E-2
3.416583094E0,9.729216576E0,1.435693540E-2,1.004985496E-1
3.426268198E0,9.734002113E0,2.392822690E-2,6.699903309E-2
3.435953354E0,9.710074425E0,1.435693540E-2,8.135596663E-2
3.445639448E0,9.710074425E0,2.871387079E-2,1.148554832E-1
3.455324031E0,9.762716293E0,-2.392822690E-2,1.148554832E-1
3.465008094E0,9.753145218E0,4.785645287E-3,-4.785645287E-3
3.474692885E0,9.753145218E0,1.435693540E-2,5.742774159E-2
3.484378458E0,9.738788605E0,9.571290575E-3,9.092725813E-2
3.494063094E0,9.724431038E0,9.571290575E-3,5.742774159E-2
3.503746844E0,9.738788605E0,-9.571290575E-3,1.100698411E-1
3.513431583E0,9.729216576E0,-1.435693540E-2,1.531406492E-1
3.523118563E0,9.724431038E0,4.785645287E-3,4.307080805E-2
3.532804500E0,9.724431038E0,-4.785645287E-3,6.221338734E-2
3.542489917E0,9.743574142E0,9.571290575E-3,5.742774159E-2
3.552174865E0,9.729216576E0,0.000000000E0,7.657032460E-2
3.561860073E0,9.734002113E0,-9.571290575E-3,7.178468257E-2
3.571545021E0,9.743574142E0,-4.785645287E-3,8.614161611E-2
3.581231167E0,9.729216576E0,9.571290575E-3,1.052841991E-1
3.590916063E0,9.729216576E0,9.571290575E-3,3.828516230E-2
3.600600854E0,9.724431038E0,0.000000000E0,7.657032460E-2
3.610286323E0,9.724431038E0,0.000000000E0,9.571290761E-2
3.619971740E0,9.738788605E0,0.000000000E0,8.135596663E-2
3.629657208E0,9.724431038E0,-1.435693540E-2,8.614161611E-2
3.639343875E0,9.729216576E0,1.435693540E-2,9.092725813E-2
3.649029500E0,9.734002113E0,0.000000000E0,8.614161611E-2
3.658714500E0,9.753145218E0,4.785645287E-3,2.871387079E-2
3.668400021E0,9.753145218E0,0.000000000E0,6.221338734E-2
3.678087000E0,9.719645500E0,1.914258115E-2,7.657032460E-2
3.687770594E0,9.734002113E0,4.785645287E-3,1.244267747E-1
3.697454865E0,9.738788605E0,-1.435693540E-2,7.178468257E-2
3.707140542E0,9.738788605E0,1.435693540E-2,7.178468257E-2
3.716825177E0,9.743574142E0,9.571290575E-3,7.178468257E-2
3.726509240E0,9.743574142E0,-4.785645287E-3,8.135596663E-2
3.736192781E0,9.729216576E0,0.000000000E0,1.148554832E-1
3.745877260E0,9.724431038E0,-9.571290575E-3,1.100698411E-1
3.755562313E0,9.734002113E0,-4.785645287E-3,1.004985496E-1
3.765247573E0,9.724431038E0,-4.785645287E-3,1.148554832E-1
3.774932052E0,9.724431038E0,0.000000000E0,1.100698411E-1
3.784615958E0,9.729216576E0,2.392822690E-2,3.349951655E-2
3.794299552E0,9.738788605E0,2.392822690E-2,-7.178468257E-2
3.803985073E0,9.734002113E0,-9.571290575E-3,2.057827413E-1
3.813670906E0,9.734002113E0,0.000000000E0,2.679961324E-1
3.823355490E0,9.724431038E0,4.785645287E-3,-7.178468257E-2
3.833041010E0,9.719645500E0,-9.571290575E-3,2.871387079E-2
3.842726740E0,9.743574142E0,9.571290575E-3,1.914258115E-2
3.852411740E0,9.734002113E0,-4.785645287E-3,1.052841991E-1
3.862096740E0,9.748359680E0,0.000000000E0,7.657032460E-2
3.871782677E0,9.729216576E0,-9.571290575E-3,1.292124242E-1
3.881468771E0,9.734002113E0,1.435693540E-2,3.349951655E-2
3.891154969E0,9.734002113E0,4.785645287E-3,3.349951655E-2
3.900839448E0,9.738788605E0,0.000000000E0,-1.722832322E-1
3.910524188E0,9.729216576E0,-1.914258115E-2,6.556333899E-1
3.920209135E0,9.734002113E0,1.914258115E-2,-1.148554832E-1
3.929893615E0,9.738788605E0,1.435693540E-2,-4.307080805E-2
3.939577654E0,9.734002113E0,4.785645287E-3,1.100698411E-1
3.949262133E0,9.714859962E0,1.914258115E-2,-1.914258152E-1
3.958947602E0,9.748359680E0,-1.435693540E-2,3.876372576E-1
3.968634685E0,9.738788605E0,1.914258115E-2,5.742774159E-2
3.978319424E0,9.748359680E0,1.435693540E-2,6.699903309E-2
3.988004737E0,9.729216576E0,4.785645287E-3,1.292124242E-1
3.997691247E0,9.729216576E0,0.000000000E0,1.052841991E-1
4.007377914E0,9.724431038E0,-9.571290575E-3,3.828516230E-2
4.017064945E0,9.748359680E0,1.914258115E-2,6.221338734E-2
4.026749841E0,9.738788605E0,2.871387079E-2,9.092725813E-2
4.036435727E0,9.738788605E0,1.914258115E-2,7.657032460E-2
4.046121716E0,9.729216576E0,-1.435693540E-2,7.657032460E-2
4.055806404E0,9.734002113E0,1.914258115E-2,1.052841991E-1
4.065490727E0,9.734002113E0,9.571290575E-3,5.742774159E-2
4.075176820E0,9.743574142E0,-9.571290575E-3,5.742774159E-2
4.084862706E0,9.729216576E0,0.000000000E0,9.571290761E-2
4.094547706E0,9.734002113E0,4.785645287E-3,9.092725813E-2
4.104232914E0,9.743574142E0,-4.785645287E-3,8.135596663E-2
4.113918070E0,9.738788605E0,4.785645287E-3,6.699903309E-2
4.123603122E0,9.724431038E0,4.785645287E-3,8.135596663E-2
4.133288904E0,9.748359680E0,1.435693540E-2,4.785645381E-2
4.142974789E0,9.738788605E0,1.435693540E-2,1.196411327E-1
4.152660258E0,9.729216576E0,0.000000000E0,5.742774159E-2
4.162346924E0,9.743574142E0,-1.435693540E-2,5.742774159E-2
4.172032914E0,9.734002113E0,4.785645287E-3,7.657032460E-2
4.181719112E0,9.743574142E0,4.785645287E-3,7.178468257E-2
4.191405779E0,9.743574142E0,1.914258115E-2,7.178468257E-2
4.201090622E0,9.724431038E0,0.000000000E0,8.614161611E-2
4.210777706E0,9.724431038E0,9.571290575E-3,6.699903309E-2
4.220463487E0,9.734002113E0,4.785645287E-3,7.178468257E-2
4.230149112E0,9.738788605E0,0.000000000E0,5.264209956E-2
4.239833122E0,9.719645500E0,1.435693540E-2,1.004985496E-1
4.249519008E0,9.738788605E0,-4.785645287E-3,7.657032460E-2
4.259205362E0,9.748359680E0,1.914258115E-2,5.742774159E-2
4.268890570E0,9.729216576E0,9.571290575E-3,9.092725813E-2
4.278577289E0,9.724431038E0,4.785645287E-3,5.742774159E-2
4.288262497E0,9.738788605E0,-9.571290575E-3,7.657032460E-2
4.297948279E0,9.734002113E0,1.435693540E-2,9.571290761E-2
4.307633539E0,9.724431038E0,4.785645287E-3,7.178468257E-2
4.317319581E0,9.738788605E0,4.785645287E-3,5.264209956E-2
4.327005987E0,9.724431038E0,-4.785645287E-3,9.571290761E-2
4.336690831E0,9.729216576E0,-4.785645287E-3,6.221338734E-2
4.346377185E0,9.724431038E0,1.914258115E-2,7.178468257E-2
4.356063435E0,9.724431038E0,1.435693540E-2,5.742774159E-2
4.365748956E0,9.714859962E0,2.392822690E-2,6.699903309E-2
4.375435049E0,9.719645500E0,0.000000000E0,7.178468257E-2
4.385121768E0,9.738788605E0,0.000000000E0,7.657032460E-2
4.394806716E0,9.738788605E0,-9.571290575E-3,2.871387079E-2
4.404491664E0,9.714859962E0,0.000000000E0,1.435693540E-2
4.414178070E0,9.734002113E0,1.435693540E-2,4.785645287E-3
4.423865727E0,9.738788605E0,-9.571290575E-3,1.531406492E-1
4.433551664E0,9.724431038E0,1.435693540E-2,8.614161611E-2
4.443237654E0,9.734002113E0,-9.571290575E-3,1.052841991E-1
4.452923122E0,9.724431038E0,-1.435693540E-2,1.052841991E-1
4.462608435E0,9.729216576E0,-9.571290575E-3,9.571290761E-2
4.472294529E0,9.734002113E0,9.571290575E-3,9.092725813E-2
4.481979060E0,9.734002113E0,0.000000000E0,7.178468257E-2
4.491665883E0,9.738788605E0,2.871387079E-2,6.221338734E-2
4.501350831E0,9.738788605E0,2.392822690E-2,7.657032460E-2
4.511035935E0,9.734002113E0,9.571290575E-3,6.699903309E-2
4.520720258E0,9.734002113E0,-9.571290575E-3,1.004985496E-1
4.530404841E0,9.729216576E0,-4.785645287E-3,8.135596663E-2
4.540090049E0,9.710074425E0,9.571290575E-3,7.657032460E-2
4.549776299E0,9.738788605E0,-9.571290575E-3,7.178468257E-2
4.559462706E0,9.729216576E0,-1.435693540E-2,6.699903309E-2
4.569147862E0,9.743574142E0,9.571290575E-3,1.004985496E-1
4.578834112E0,9.734002113E0,4.785645287E-3,5.742774159E-2
4.588520362E0,9.738788605E0,4.785645287E-3,4.307080805E-2
4.598205362E0,9.734002113E0,4.785645287E-3,6.699903309E-2
4.607889997E0,9.724431038E0,4.785645287E-3,2.392822690E-2
4.617576039E0,9.724431038E0,0.000000000E0,5.742774159E-2
4.627261977E0,9.719645500E0,0.000000000E0,9.571290761E-2
4.636945987E0,9.719645500E0,4.785645287E-3,7.178468257E-2
4.646631716E0,9.738788605E0,-1.435693540E-2,1.339980662E-1
4.656318070E0,9.748359680E0,9.571290575E-3,9.571290761E-2
4.666004164E0,9.724431038E0,-4.785645287E-3,8.135596663E-2
4.675690310E0,9.729216576E0,9.571290575E-3,7.657032460E-2
4.685375831E0,9.729216576E0,-4.785645287E-3,8.135596663E-2
4.695061404E0,9.724431038E0,9.571290575E-3,8.135596663E-2
4.704748279E0,9.724431038E0,2.392822690E-2,8.135596663E-2
4.714433070E0,9.719645500E0,-4.785645287E-3,7.178468257E-2
4.724117185E0,9.729216576E0,9.571290575E-3,6.699903309E-2
4.733803279E0,9.729216576E0,1.435693540E-2,5.742774159E-2
4.743488799E0,9.748359680E0,-4.785645287E-3,6.699903309E-2
4.753174997E0,9.729216576E0,-4.785645287E-3,6.221338734E-2
4.762861664E0,9.719645500E0,9.571290575E-3,8.614161611E-2
4.772547810E0,9.714859962E0,4.785645287E-3,8.614161611E-2
4.782234789E0,9.729216576E0,1.435693540E-2,7.657032460E-2
4.791921560E0,9.729216576E0,1.914258115E-2,8.614161611E-2
4.801606143E0,9.729216576E0,4.785645287E-3,7.178468257E-2
4.811290987E0,9.748359680E0,0.000000000E0,5.742774159E-2
4.820977654E0,9.930213928E0,-1.722832322E-1,-3.828516230E-2
4.830662810E0,9.743574142E0,-2.392822690E-2,-1.435693540E-2
4.840348695E0,9.504291534E0,2.584248483E-1,1.914258152E-1
4.850034893E0,9.734002113E0,2.392822690E-2,8.135596663E-2
4.859721247E0,9.729216576E0,9.571290575E-3,6.221338734E-2
4.869405883E0,9.734002113E0,1.435693540E-2,3.828516230E-2
4.879091456E0,9.724431038E0,1.435693540E-2,6.221338734E-2
4.888776924E0,9.729216576E0,4.785645287E-3,5.264209956E-2
4.898463539E0,9.719645500E0,9.571290575E-3,4.785645381E-2
4.908149945E0,9.734002113E0,2.392822690E-2,5.264209956E-2
4.917835258E0,9.729216576E0,4.785645287E-3,4.785645381E-2
4.927521612E0,9.729216576E0,2.392822690E-2,3.828516230E-2
4.937207445E0,9.738788605E0,4.785645287E-3,5.742774159E-2
4.946895466E0,9.729216576E0,1.435693540E-2,4.785645381E-2
4.956581299E0,9.719645500E0,4.785645287E-3,6.221338734E-2
4.966267341E0,9.743574142E0,2.871387079E-2,5.742774159E-2
4.975952341E0,9.729216576E0,0.000000000E0,4.785645381E-2
4.985636352E0,9.734002113E0,1.435693540E-2,6.221338734E-2
4.995321404E0,9.738788605E0,4.785645287E-3,4.785645381E-2
5.005007289E0,9.743574142E0,2.392822690E-2,5.264209956E-2
5.014692966E0,9.734002113E0,-4.785645287E-3,4.785645381E-2
5.024379424E0,9.734002113E0,4.785645287E-3,6.699903309E-2
5.034065570E0,9.719645500E0,2.392822690E-2,5.264209956E-2
5.043751091E0,9.729216576E0,-9.571290575E-3,5.742774159E-2
5.053435987E0,9.734002113E0,0.000000000E0,5.264209956E-2
5.063122081E0,9.734002113E0,-4.785645287E-3,6.699903309E-2
5.072808018E0,9.748359680E0,0.000000000E0,4.785645381E-2
5.082495570E0,9.724431038E0,9.571290575E-3,4.307080805E-2
5.092181664E0,9.729216576E0,-9.571290575E-3,5.742774159E-2
5.101867341E0,9.734002113E0,-4.785645287E-3,5.742774159E-2
5.111552862E0,9.734002113E0,-9.571290575E-3,5.742774159E-2
5.121238227E0,9.734002113E0,-4.785645287E-3,4.785645381E-2
5.130924216E0,9.743574142E0,0.000000000E0,5.264209956E-2
5.140609164E0,9.729216576E0,9.571290575E-3,4.785645381E-2
5.150296352E0,9.714859962E0,4.785645287E-3,6.221338734E-2
5.159982289E0,9.738788605E0,1.435693540E-2,4.785645381E-2
5.169667445E0,9.738788605E0,4.785645287E-3,5.742774159E-2
5.179352810E0,9.719645500E0,9.571290575E-3,5.264209956E-2
5.189038591E0,9.738788605E0,2.392822690E-2,4.785645381E-2
5.198724164E0,9.724431038E0,9.571290575E-3,5.264209956E-2
5.208409581E0,9.729216576E0,4.785645287E-3,5.264209956E-2
5.218093591E0,9.719645500E0,9.571290575E-3,5.742774159E-2
5.227779737E0,9.734002113E0,9.571290575E-3,4.307080805E-2
5.237464945E0,9.719645500E0,1.435693540E-2,4.307080805E-2
5.247150466E0,9.719645500E0,9.571290575E-3,4.307080805E-2
5.256835518E0,9.743574142E0,1.914258115E-2,5.264209956E-2
5.266520258E0,9.729216576E0,0.000000000E0,5.264209956E-2
5.276206195E0,9.734002113E0,9.571290575E-3,4.785645381E-2
5.285892602E0,9.724431038E0,0.000000000E0,5.742774159E-2
5.295579424E0,9.748359680E0,0.000000000E0,4.307080805E-2
5.305267185E0,9.729216576E0,1.914258115E-2,5.264209956E-2
5.314953487E0,9.719645500E0,9.571290575E-3,5.742774159E-2
5.324639997E0,9.719645500E0,-4.785645287E-3,5.742774159E-2
5.334325935E0,9.729216576E0,1.435693540E-2,5.742774159E-2
5.344012966E0,9.738788605E0,4.785645287E-3,4.785645381E-2
5.353699112E0,9.743574142E0,0.000000000E0,3.349951655E-2
5.363385518E0,9.738788605E0,9.571290575E-3,4.307080805E-2
5.373070987E0,9.734002113E0,1.435693540E-2,4.785645381E-2
5.382757237E0,9.738788605E0,4.785645287E-3,5.264209956E-2
5.392442654E0,9.729216576E0,0.000000000E0,5.264209956E-2
5.402128695E0,9.734002113E0,4.785645287E-3,6.221338734E-2
5.411815102E0,9.748359680E0,1.435693540E-2,6.221338734E-2
5.421499320E0,1.022213840E1,-4.307080805E-2,-1.914258115E-2
5.431185049E0,1.065763187E1,-5.934200287E-1,-1.244267747E-1
5.440870310E0,8.303094864E0,6.364908218E-1,1.387837082E-1
5.450556143E0,9.734002113E0,0.000000000E0,6.699903309E-2
5.460241456E0,9.719645500E0,-9.571290575E-3,5.264209956E-2
5.469926247E0,9.724431038E0,0.000000000E0,-2.392822690E-2
5.479610518E0,9.729216576E0,0.000000000E0,9.571290575E-3
5.489296299E0,9.724431038E0,0.000000000E0,1.914258115E-2
5.498982758E0,9.724431038E0,4.785645287E-3,1.435693540E-2
5.508667914E0,9.719645500E0,-9.571290575E-3,4.785645287E-3
5.518354997E0,9.719645500E0,-4.785645287E-3,1.435693540E-2
5.528040362E0,9.729216576E0,4.785645287E-3,-4.785645287E-3
5.537728018E0,9.719645500E0,-4.785645287E-3,1.914258115E-2
5.547413122E0,9.743574142E0,9.571290575E-3,0.000000000E0
5.557098018E0,9.729216576E0,0.000000000E0,4.785645287E-3
5.566784789E0,9.724431038E0,4.785645287E-3,1.914258115E-2
5.576469112E0,9.734002113E0,-1.435693540E-2,9.571290575E-3
5.586153852E0,9.738788605E0,4.785645287E-3,1.435693540E-2
5.595840102E0,9.734002113E0,0.000000000E0,1.435693540E-2
5.605524633E0,9.724431038E0,-4.785645287E-3,4.785645287E-3
5.615208956E0,9.738788605E0,-9.571290575E-3,4.785645287E-3
5.624894268E0,9.738788605E0,-9.571290575E-3,4.785645287E-3
5.634579841E0,9.710074425E0,-1.914258115E-2,4.307080805E-2
5.644265622E0,9.714859962E0,-9.571290575E-3,9.571290575E-3
5.653951508E0,9.753145218E0,1.435693540E-2,9.571290575E-3
5.663635727E0,9.743574142E0,-4.785645287E-3,1.435693540E-2
5.673321924E0,9.734002113E0,9.571290575E-3,4.785645287E-3
5.683008279E0,9.743574142E0,-1.435693540E-2,1.435693540E-2
5.692694529E0,9.734002113E0,0.000000000E0,0.000000000E0
5.702379581E0,9.724431038E0,-1.435693540E-2,4.785645287E-3
5.712064529E0,9.738788605E0,0.000000000E0,9.571290575E-3
5.721751195E0,9.729216576E0,-4.785645287E-3,2.392822690E-2
5.731436143E0,9.734002113E0,-1.435693540E-2,1.914258115E-2
5.741121247E0,9.734002113E0,9.571290575E-3,3.349951655E-2
5.750807393E0,9.753145218E0,-4.785645287E-3,1.914258115E-2
5.760493799E0,9.734002113E0,-1.435693540E-2,1.435693540E-2
5.770178227E0,9.714859962E0,4.785645287E-3,4.785645287E-3
5.779862966E0,9.729216576E0,-4.785645287E-3,0.000000000E0
5.789545414E0,9.719645500E0,9.571290575E-3,0.000000000E0
5.799229164E0,9.734002113E0,-9.571290575E-3,1.435693540E-2
5.808913643E0,9.729216576E0,-4.785645287E-3,1.435693540E-2
5.818598799E0,9.714859962E0,4.785645287E-3,9.571290575E-3
5.828283018E0,9.734002113E0,4.785645287E-3,9.571290575E-3
5.837967341E0,9.743574142E0,0.000000000E0,4.785645287E-3
5.847653643E0,9.738788605E0,2.392822690E-2,1.435693540E-2
5.857339268E0,9.738788605E0,0.000000000E0,-9.571290575E-3
5.867025518E0,9.729216576E0,4.785645287E-3,4.785645287E-3
5.876711091E0,9.734002113E0,-9.571290575E-3,9.571290575E-3
5.886395831E0,9.729216576E0,-4.785645287E-3,4.785645287E-3
5.896082341E0,9.738788605E0,4.785645287E-3,9.571290575E-3
5.905769164E0,9.738788605E0,0.000000000E0,-4.785645287E-3
5.915455362E0,9.734002113E0,0.000000000E0,4.785645287E-3
5.925142445E0,9.724431038E0,-9.571290575E-3,1.435693540E-2
5.934829320E0,9.724431038E0,0.000000000E0,9.571290575E-3
5.944514581E0,9.734002113E0,0.000000000E0,2.871387079E-2
5.954199581E0,9.729216576E0,0.000000000E0,-4.785645287E-3
5.963884529E0,9.729216576E0,1.435693540E-2,0.000000000E0
5.973570049E0,9.738788605E0,1.435693540E-2,0.000000000E0
5.983255831E0,9.724431038E0,-1.435693540E-2,1.435693540E-2
5.992941820E0,9.729216576E0,0.000000000E0,1.914258115E-2
6.002626977E0,9.738788605E0,-4.785645287E-3,9.571290575E-3
6.012312758E0,9.719645500E0,4.785645287E-3,0.000000000E0
6.021999997E0,9.729216576E0,1.435693540E-2,1.914258115E-2
6.031685570E0,9.729216576E0,-4.785645287E-3,2.392822690E-2
6.041372289E0,9.729216576E0,1.435693540E-2,4.785645287E-3
6.051056768E0,9.729216576E0,1.914258115E-2,1.914258115E-2
6.060742758E0,9.738788605E0,4.785645287E-3,0.000000000E0
6.070427393E0,9.724431038E0,-1.914258115E-2,-1.914258115E-2
6.080113122E0,9.753145218E0,1.435693540E-2,3.349951655E-2
6.089798070E0,9.724431038E0,4.785645287E-3,1.435693540E-2
6.099485049E0,9.729216576E0,-4.785645287E-3,-4.785645287E-3
6.109169216E0,9.734002113E0,-4.785645287E-3,2.871387079E-2
6.118853695E0,9.738788605E0,-4.785645287E-3,4.785645287E-3
6.128537654E0,9.724431038E0,0.000000000E0,9.571290575E-3
6.138222393E0,9.734002113E0,-4.785645287E-3,1.435693540E-2
6.147908122E0,9.734002113E0,9.571290575E-3,4.785645287E-3
6.157594841E0,9.719645500E0,9.571290575E-3,4.785645287E-3
6.167280935E0,9.724431038E0,9.571290575E-3,4.785645287E-3
6.176966091E0,9.757930756E0,-9.571290575E-3,9.571290575E-3
6.186651664E0,9.729216576E0,0.000000000E0,0.000000000E0
6.196338018E0,9.719645500E0,1.435693540E-2,9.571290575E-3
6.206023852E0,9.719645500E0,0.000000000E0,0.000000000E0
6.215708539E0,9.734002113E0,0.000000000E0,3.349951655E-2
6.225393227E0,9.743574142E0,-1.435693540E-2,1.914258115E-2
6.235079216E0,9.729216576E0,-9.571290575E-3,4.785645287E-3
6.244765466E0,9.729216576E0,0.000000000E0,3.349951655E-2
6.254453279E0,9.719645500E0,0.000000000E0,4.785645287E-3
6.264139737E0,9.738788605E0,4.785645287E-3,0.000000000E0
6.273826716E0,9.748359680E0,-9.571290575E-3,9.571290575E-3
6.283512758E0,9.729216576E0,4.785645287E-3,4.785645287E-3
6.293199268E0,9.738788605E0,-4.785645287E-3,9.571290575E-3
6.302886404E0,9.734002113E0,4.785645287E-3,9.571290575E-3
6.312572810E0,9.734002113E0,9.571290575E-3,1.435693540E-2
6.322259945E0,9.734002113E0,1.435693540E-2,9.571290575E-3
6.331946612E0,9.738788605E0,1.435693540E-2,-9.571290575E-3
6.341633852E0,9.729216576E0,-9.571290575E-3,9.571290575E-3
6.351319164E0,9.729216576E0,-1.435693540E-2,4.785645287E-3
6.361005102E0,9.753145218E0,0.000000000E0,4.785645287E-3
6.370691820E0,9.738788605E0,0.000000000E0,0.000000000E0
6.380377185E0,9.743574142E0,0.000000000E0,9.571290575E-3
6.390062966E0,9.729216576E0,1.435693540E-2,4.785645287E-3
6.399749320E0,9.729216576E0,-4.785645287E-3,1.914258115E-2
6.409435102E0,9.734002113E0,0.000000000E0,0.000000000E0
6.419120622E0,9.734002113E0,0.000000000E0,4.785645287E-3
6.428806820E0,9.724431038E0,-9.571290575E-3,4.785645287E-3
6.438493643E0,9.729216576E0,9.571290575E-3,4.785645287E-3
6.448180987E0,9.738788605E0,-4.785645287E-3,9.571290575E-3
6.457867341E0,9.734002113E0,0.000000000E0,0.000000000E0
6.467553539E0,9.734002113E0,4.785645287E-3,-4.785645287E-3
6.477237862E0,9.738788605E0,1.914258115E-2,1.914258115E-2
6.486923904E0,9.734002113E0,-4.785645287E-3,-4.785645287E-3
6.496610310E0,9.724431038E0,4.785645287E-3,4.785645287E-3
6.506296924E0,9.734002113E0,-9.571290575E-3,4.785645287E-3
6.515981664E0,9.734002113E0,-4.785645287E-3,-4.785645287E-3
6.525667237E0,9.724431038E0,-4.785645287E-3,4.785645287E-3
6.535352185E0,9.729216576E0,-1.435693540E-2,0.000000000E0
6.545037706E0,9.743574142E0,0.000000000E0,4.785645287E-3
6.554722237E0,9.734002113E0,-9.571290575E-3,4.785645287E-3
6.564407654E0,9.719645500E0,0.000000000E0,4.785645287E-3
6.574093122E0,9.729216576E0,4.785645287E-3,4.785645287E-3
6.583776560E0,9.743574142E0,-1.435693540E-2,1.435693540E-2
6.593461612E0,9.734002113E0,4.785645287E-3,1.435693540E-2
6.603147549E0,9.729216576E0,9.571290575E-3,1.914258115E-2
6.612834737E0,9.724431038E0,0.000000000E0,9.571290575E-3
6.622521299E0,9.734002113E0,-4.785645287E-3,9.571290575E-3
6.632206195E0,9.729216576E0,-9.571290575E-3,4.785645287E-3
6.641890206E0,9.729216576E0,-4.785645287E-3,4.785645287E-3
6.651575727E0,9.724431038E0,-4.785645287E-3,0.000000000E0
6.661259997E0,9.734002113E0,-1.914258115E-2,9.571290575E-3
6.670947185E0,9.724431038E0,-4.785645287E-3,1.914258115E-2
6.680632497E0,9.714859962E0,-4.785645287E-3,9.571290575E-3
6.690317810E0,9.734002113E0,4.785645287E-3,0.000000000E0
6.700004008E0,9.738788605E0,-9.571290575E-3,9.571290575E-3
6.709690466E0,9.729216576E0,4.785645287E-3,4.785645287E-3
6.719375935E0,9.729216576E0,0.000000000E0,4.785645287E-3
6.729060518E0,9.724431038E0,0.000000000E0,9.571290575E-3
6.738745987E0,9.729216576E0,1.914258115E-2,9.571290575E-3
6.748431508E0,9.734002113E0,-4.785645287E-3,0.000000000E0
6.758116352E0,9.729216576E0,0.000000000E0,4.785645287E-3
6.767800206E0,9.734002113E0,9.571290575E-3,9.571290575E-3
6.777484216E0,9.738788605E0,1.435693540E-2,4.785645287E-3
6.787169372E0,9.729216576E0,1.914258115E-2,4.785645287E-3
6.796855883E0,9.729216576E0,9.571290575E-3,1.435693540E-2
6.806541299E0,9.738788605E0,9.571290575E-3,1.435693540E-2
6.816225935E0,9.743574142E0,-4.785645287E-3,0.000000000E0
6.825911716E0,9.734002113E0,-4.785645287E-3,0.000000000E0
6.835596456E0,9.738788605E0,-4.785645287E-3,9.571290575E-3
6.845282341E0,9.724431038E0,-9.571290575E-3,9.571290575E-3
6.854967810E0,9.724431038E0,-1.435693540E-2,4.785645287E-3
6.864653227E0,9.719645500E0,4.785645287E-3,0.000000000E0
6.874338383E0,9.734002113E0,-4.785645287E-3,0.000000000E0
6.884025570E0,9.734002113E0,9.571290575E-3,-4.785645287E-3
6.893710622E0,9.724431038E0,9.571290575E-3,9.571290575E-3
6.903395622E0,9.738788605E0,4.785645287E-3,4.785645287E-3
6.913082237E0,9.729216576E0,-9.571290575E-3,-9.571290575E-3
6.922768018E0,9.738788605E0,-9.571290575E-3,1.435693540E-2
6.932451820E0,9.738788605E0,-9.571290575E-3,0.000000000E0
6.942137758E0,9.719645500E0,0.000000000E0,0.000000000E0
6.951822654E0,9.714859962E0,-4.785645287E-3,9.571290575E-3
6.961509164E0,9.734002113E0,-9.571290575E-3,0.000000000E0
6.971194685E0,9.724431038E0,-1.914258115E-2,9.571290575E-3
6.980880622E0,9.724431038E0,-9.571290575E-3,4.785645287E-3
6.990566091E0,9.753145218E0,-9.571290575E-3,1.435693540E-2
7.000251247E0,9.743574142E0,-1.435693540E-2,1.435693540E-2
7.009936508E0,9.743574142E0,-9.571290575E-3,1.914258115E-2
7.019621612E0,9.724431038E0,4.785645287E-3,1.435693540E-2
7.029306456E0,9.738788605E0,1.435693540E-2,0.000000000E0
7.038992289E0,9.738788605E0,1.914258115E-2,9.571290575E-3
7.048677810E0,9.738788605E0,0.000000000E0,4.785645287E-3
7.058365466E0,9.734002113E0,4.785645287E-3,9.571290575E-3
7.068052706E0,9.738788605E0,0.000000000E0,0.000000000E0
7.077739477E0,9.738788605E0,-4.785645287E-3,9.571290575E-3
7.087426872E0,9.729216576E0,-4.785645287E-3,-4.785645287E-3
7.097114008E0,9.734002113E0,1.914258115E-2,4.785645287E-3
7.106801612E0,9.729216576E0,9.571290575E-3,1.435693540E-2
7.116489320E0,9.729216576E0,1.435693540E-2,0.000000000E0
7.126175987E0,9.743574142E0,-9.571290575E-3,4.785645287E-3
7.135862706E0,9.734002113E0,9.571290575E-3,9.571290575E-3
7.145550258E0,9.724431038E0,0.000000000E0,1.435693540E-2
7.155236560E0,9.738788605E0,-9.571290575E-3,4.785645287E-3
7.164923331E0,9.719645500E0,-9.571290575E-3,1.435693540E-2
7.174609685E0,9.734002113E0,1.914258115E-2,0.000000000E0
7.184296612E0,9.724431038E0,9.571290575E-3,1.435693540E-2
7.193984372E0,9.724431038E0,-1.914258115E-2,9.571290575E-3
7.203672706E0,9.729216576E0,-9.571290575E-3,1.435693540E-2
7.213360362E0,9.738788605E0,1.914258115E-2,-4.785645287E-3
7.223048227E0,9.738788605E0,4.785645287E-3,4.785645287E-3
7.232734685E0,9.724431038E0,-4.785645287E-3,0.000000000E0
7.242420674E0,9.743574142E0,0.000000000E0,4.785645287E-3
7.252105622E0,9.738788605E0,0.000000000E0,9.571290575E-3
7.261790674E0,9.738788605E0,-4.785645287E-3,1.435693540E-2
7.271475987E0,9.729216576E0,-9.571290575E-3,9.571290575E-3
7.281163435E0,9.729216576E0,0.000000000E0,0.000000000E0
7.290848799E0,9.734002113E0,0.000000000E0,-4.785645287E-3
7.300533747E0,9.748359680E0,1.435693540E-2,0.000000000E0
7.310219164E0,9.738788605E0,1.914258115E-2,9.571290575E-3
7.319905206E0,9.729216576E0,4.785645287E-3,-4.785645287E-3
7.329590154E0,9.724431038E0,9.571290575E-3,9.571290575E-3
7.339275883E0,9.729216576E0,-1.914258115E-2,4.785645287E-3
7.348962341E0,9.734002113E0,4.785645287E-3,4.785645287E-3
7.358648331E0,9.738788605E0,-1.914258115E-2,9.571290575E-3
7.368333643E0,9.714859962E0,4.785645287E-3,0.000000000E0
7.378019529E0,9.724431038E0,1.914258115E-2,0.000000000E0
7.387705049E0,9.724431038E0,4.785645287E-3,-4.785645287E-3
7.397390674E0,9.729216576E0,4.785645287E-3,9.571290575E-3
7.407076977E0,9.729216576E0,4.785645287E-3,1.914258115E-2
7.416763331E0,9.734002113E0,0.000000000E0,1.914258115E-2
7.426449216E0,9.724431038E0,-4.785645287E-3,0.000000000E0
7.436134060E0,9.719645500E0,-1.914258115E-2,-9.571290575E-3
7.445819581E0,9.734002113E0,1.435693540E-2,9.571290575E-3
7.455506716E0,9.734002113E0,-1.435693540E-2,9.571290575E-3
7.465193747E0,9.729216576E0,1.914258115E-2,-9.571290575E-3
7.474879685E0,9.719645500E0,-1.914258115E-2,4.785645287E-3
7.484566716E0,9.743574142E0,4.785645287E-3,4.785645287E-3
7.494253122E0,9.729216576E0,4.785645287E-3,9.571290575E-3
7.503939789E0,9.743574142E0,9.571290575E-3,0.000000000E0
7.513627393E0,9.734002113E0,0.000000000E0,1.914258115E-2
7.523312758E0,9.724431038E0,-9.571290575E-3,4.785645287E-3
7.532999216E0,9.734002113E0,0.000000000E0,9.571290575E-3
7.542685518E0,9.729216576E0,4.785645287E-3,0.000000000E0
7.552372289E0,9.729216576E0,4.785645287E-3,-1.914258115E-2
7.562059372E0,9.729216576E0,0.000000000E0,1.914258115E-2
7.571745049E0,9.734002113E0,0.000000000E0,0.000000000E0
7.581430935E0,9.729216576E0,0.000000000E0,-4.785645287E-3
7.591116247E0,9.743574142E0,4.785645287E-3,0.000000000E0
7.600803122E0,9.724431038E0,9.571290575E-3,4.785645287E-3
7.610487914E0,9.738788605E0,-9.571290575E-3,4.785645287E-3
7.620173747E0,9.714859962E0,9.571290575E-3,0.000000000E0
7.629858956E0,9.734002113E0,4.785645287E-3,4.785645287E-3
7.639545049E0,9.738788605E0,0.000000000E0,9.571290575E-3
7.649232185E0,9.734002113E0,-1.435693540E-2,1.914258115E-2
7.658916247E0,9.753145218E0,-4.785645287E-3,0.000000000E0
7.668602497E0,9.719645500E0,-2.392822690E-2,1.435693540E-2
7.678288279E0,9.729216576E0,-1.435693540E-2,1.435693540E-2
7.687972445E0,9.734002113E0,-9.571290575E-3,1.435693540E-2
7.697656924E0,9.738788605E0,4.785645287E-3,9.571290575E-3
7.707341091E0,9.729216576E0,-9.571290575E-3,9.571290575E-3
7.717025102E0,9.729216576E0,4.785645287E-3,1.914258115E-2
7.726709581E0,9.738788605E0,-1.435693540E-2,4.785645287E-3
7.736395414E0,9.734002113E0,1.435693540E-2,4.785645287E-3
7.746080987E0,9.738788605E0,-4.785645287E-3,4.785645287E-3
7.755766404E0,9.714859962E0,9.571290575E-3,-4.785645287E-3
7.765453174E0,9.714859962E0,1.435693540E-2,0.000000000E0
7.775139789E0,9.719645500E0,1.914258115E-2,1.435693540E-2
7.784825779E0,9.734002113E0,-9.571290575E-3,1.435693540E-2
7.794511247E0,9.738788605E0,-4.785645287E-3,4.785645287E-3
7.804197081E0,9.748359680E0,0.000000000E0,4.785645287E-3
7.813883487E0,9.753145218E0,4.785645287E-3,1.435693540E-2
7.823569112E0,9.734002113E0,4.785645287E-3,1.435693540E-2
7.833255258E0,9.738788605E0,-9.571290575E-3,4.785645287E-3
7.842940258E0,9.734002113E0,-4.785645287E-3,9.571290575E-3
7.852625518E0,9.734002113E0,-4.785645287E-3,-4.785645287E-3
7.862310362E0,9.738788605E0,-4.785645287E-3,-4.785645287E-3
7.871996091E0,9.724431038E0,0.000000000E0,-9.571290575E-3
7.881682133E0,9.738788605E0,0.000000000E0,4.785645287E-3
7.891367133E0,9.734002113E0,-4.785645287E-3,4.785645287E-3
7.901052341E0,9.743574142E0,9.571290575E-3,1.435693540E-2
7.910739997E0,9.734002113E0,-4.785645287E-3,2.392822690E-2
7.920427706E0,9.729216576E0,4.785645287E-3,0.000000000E0
7.930113799E0,9.729216576E0,9.571290575E-3,4.785645287E-3
7.939800414E0,9.734002113E0,-9.571290575E-3,9.571290575E-3
7.949487497E0,9.714859962E0,-4.785645287E-3,9.571290575E-3
7.959173904E0,9.734002113E0,0.000000000E0,0.000000000E0
7.968858070E0,9.734002113E0,-1.435693540E-2,-9.571290575E-3
7.978542237E0,9.724431038E0,0.000000000E0,0.000000000E0
7.988226820E0,9.743574142E0,4.785645287E-3,4.785645287E-3
7.997912602E0,9.734002113E0,0.000000000E0,0.000000000E0
8.007599008E0,9.719645500E0,-2.392822690E-2,1.435693540E-2
8.017285414E0,9.738788605E0,-4.785645287E-3,9.571290575E-3
8.026972237E0,9.743574142E0,9.571290575E-3,4.785645287E-3
8.036658747E0,9.738788605E0,0.000000000E0,-4.785645287E-3
8.046344477E0,9.724431038E0,-4.785645287E-3,1.435693540E-2
8.056030049E0,9.729216576E0,4.785645287E-3,0.000000000E0
8.065715883E0,9.743574142E0,4.785645287E-3,0.000000000E0
8.075402341E0,9.724431038E0,0.000000000E0,9.571290575E-3
8.085087549E0,9.729216576E0,0.000000000E0,1.914258115E-2
8.094774060E0,9.738788605E0,4.785645287E-3,9.571290575E-3
8.104459633E0,9.743574142E0,9.571290575E-3,9.571290575E-3
8.114145831E0,9.719645500E0,0.000000000E0,0.000000000E0
8.123832758E0,9.724431038E0,9.571290575E-3,4.785645287E-3
8.133519581E0,9.734002113E0,0.000000000E0,0.000000000E0
8.143206143E0,9.719645500E0,1.435693540E-2,0.000000000E0
8.152892237E0,9.734002113E0,9.571290575E-3,4.785645287E-3
8.162579789E0,9.738788605E0,-9.571290575E-3,4.785645287E-3
8.172266456E0,9.743574142E0,4.785645287E-3,-4.785645287E-3
8.181952341E0,9.748359680E0,-4.785645287E-3,1.914258115E-2
8.191638539E0,9.734002113E0,-4.785645287E-3,1.435693540E-2
8.201324789E0,9.724431038E0,-4.785645287E-3,0.000000000E0
8.211012602E0,9.734002113E0,-4.785645287E-3,4.785645287E-3
8.220699841E0,9.734002113E0,0.000000000E0,0.000000000E0
8.230385674E0,9.734002113E0,-4.785645287E-3,-4.785645287E-3
8.240071924E0,9.729216576E0,0.000000000E0,9.571290575E-3
8.249758227E0,9.734002113E0,0.000000000E0,-4.785645287E-3
8.259442862E0,9.734002113E0,-4.785645287E-3,4.785645287E-3
8.269127966E0,9.729216576E0,-1.914258115E-2,0.000000000E0
8.278813539E0,9.738788605E0,4.785645287E-3,4.785645287E-3
8.288499893E0,9.738788605E0,-9.571290575E-3,-4.785645287E-3
8.298185883E0,9.743574142E0,1.435693540E-2,0.000000000E0
8.307872810E0,9.724431038E0,9.571290575E-3,-9.571290575E-3
8.317558227E0,9.719645500E0,-4.785645287E-3,4.785645287E-3
8.327242862E0,9.729216576E0,1.435693540E-2,4.785645287E-3
8.336927966E0,9.729216576E0,-4.785645287E-3,1.435693540E-2
8.346613852E0,9.743574142E0,4.785645287E-3,1.435693540E-2
8.356300779E0,9.734002113E0,9.571290575E-3,0.000000000E0
8.365987133E0,9.748359680E0,0.000000000E0,1.435693540E-2
8.375673279E0,9.738788605E0,4.785645287E-3,4.785645287E-3
8.385359112E0,9.738788605E0,-1.914258115E-2,1.435693540E-2
8.395045102E0,9.714859962E0,0.000000000E0,-9.571290575E-3
8.404731039E0,9.729216576E0,0.000000000E0,0.000000000E0
8.414419633E0,9.748359680E0,9.571290575E-3,1.435693540E-2
8.424106508E0,9.753145218E0,9.571290575E-3,9.571290575E-3
8.433791872E0,9.734002113E0,4.785645287E-3,4.785645287E-3
8.443477862E0,9.734002113E0,-4.785645287E-3,9.571290575E-3
8.453164372E0,9.734002113E0,-4.785645287E-3,-1.435693540E-2
8.462850987E0,9.729216576E0,0.000000000E0,-4.785645287E-3
8.472538539E0,9.719645500E0,-1.435693540E-2,4.785645287E-3
8.482225779E0,9.729216576E0,-4.785645287E-3,2.392822690E-2
8.491913852E0,9.724431038E0,-9.571290575E-3,0.000000000E0
8.501601039E0,9.729216576E0,-4.785645287E-3,4.785645287E-3
8.511288331E0,9.729216576E0,-1.435693540E-2,1.435693540E-2
8.520974008E0,9.734002113E0,-4.785645287E-3,-9.571290575E-3
8.530659685E0,9.729216576E0,-1.914258115E-2,9.571290575E-3
8.540347445E0,9.738788605E0,-4.785645287E-3,4.785645287E-3
8.550033852E0,9.738788605E0,9.571290575E-3,1.435693540E-2
8.559720987E0,9.738788605E0,-9.571290575E-3,4.785645287E-3
8.569408279E0,9.729216576E0,4.785645287E-3,4.785645287E-3
8.579094997E0,9.738788605E0,-4.785645287E-3,-4.785645287E-3
8.588782185E0,9.734002113E0,-1.435693540E-2,4.785645287E-3
8.598468799E0,9.734002113E0,9.571290575E-3,4.785645287E-3
8.608155727E0,9.734002113E0,2.392822690E-2,4.785645287E-3
8.617841612E0,9.734002113E0,9.571290575E-3,9.571290575E-3
8.627529529E0,9.734002113E0,2.392822690E-2,-4.785645287E-3
8.637215310E0,9.743574142E0,9.571290575E-3,0.000000000E0
8.646902602E0,9.724431038E0,0.000000000E0,-4.785645287E-3
8.656588695E0,9.743574142E0,-4.785645287E-3,-4.785645287E-3
8.666275362E0,9.719645500E0,0.000000000E0,0.000000000E0
8.675962081E0,9.729216576E0,0.000000000E0,-1.435693540E-2
8.685647654E0,9.734002113E0,9.571290575E-3,0.000000000E0
8.695334164E0,9.738788605E0,-4.785645287E-3,-4.785645287E-3
8.705021768E0,9.743574142E0,-4.785645287E-3,9.571290575E-3
8.714708070E0,9.724431038E0,1.914258115E-2,0.000000000E0
8.724393122E0,9.734002113E0,9.571290575E-3,0.000000000E0
8.734077133E0,9.734002113E0,-9.571290575E-3,9.571290575E-3
8.743762862E0,9.738788605E0,9.571290575E-3,0.000000000E0
8.753448487E0,9.734002113E0,1.914258115E-2,0.000000000E0
8.763134685E0,9.738788605E0,-4.785645287E-3,-1.435693540E-2
8.772821768E0,9.734002113E0,-9.571290575E-3,0.000000000E0
8.782507654E0,9.719645500E0,-4.785645287E-3,4.785645287E-3
8.792192914E0,9.748359680E0,9.571290575E-3,0.000000000E0
8.801879581E0,9.738788605E0,4.785645287E-3,0.000000000E0
8.811565727E0,9.734002113E0,0.000000000E0,9.571290575E-3
8.821253227E0,9.729216576E0,9.571290575E-3,1.435693540E-2
8.830939268E0,9.738788605E0,0.000000000E0,4.785645287E-3
8.840625570E0,9.743574142E0,4.785645287E-3,9.571290575E-3
8.850311560E0,9.743574142E0,-9.571290575E-3,9.571290575E-3
8.859997445E0,9.743574142E0,-9.571290575E-3,-4.785645287E-3
8.869682914E0,9.743574142E0,0.000000000E0,9.571290575E-3
8.879369789E0,9.753145218E0,9.571290575E-3,4.785645287E-3
8.889056299E0,9.729216576E0,4.785645287E-3,9.571290575E-3
8.898741091E0,9.738788605E0,4.785645287E-3,-9.571290575E-3
8.908427497E0,9.734002113E0,0.000000000E0,9.571290575E-3
8.918114581E0,9.724431038E0,0.000000000E0,-4.785645287E-3
8.927801560E0,9.738788605E0,-1.435693540E-2,9.571290575E-3
8.937487549E0,9.743574142E0,9.571290575E-3,1.435693540E-2
8.947172914E0,9.738788605E0,-4.785645287E-3,4.785645287E-3
8.956859581E0,9.748359680E0,1.435693540E-2,1.435693540E-2
8.966545154E0,9.743574142E0,1.435693540E-2,0.000000000E0
8.976230779E0,9.743574142E0,-9.571290575E-3,-4.785645287E-3
8.985916143E0,9.734002113E0,-4.785645287E-3,1.914258115E-2
8.995601456E0,9.724431038E0,9.571290575E-3,-4.785645287E-3
9.005288539E0,9.729216576E0,-1.914258115E-2,0.000000000E0
9.014975049E0,9.734002113E0,4.785645287E-3,4.785645287E-3
9.024660258E0,9.729216576E0,-4.785645287E-3,-4.785645287E-3
9.034346612E0,9.729216576E0,4.785645287E-3,0.000000000E0
9.044032237E0,9.729216576E0,9.571290575E-3,-1.435693540E-2
9.053716716E0,9.734002113E0,0.000000000E0,-9.571290575E-3
9.063402081E0,9.724431038E0,9.571290575E-3,-4.785645287E-3
9.073088852E0,9.743574142E0,4.785645287E-3,0.000000000E0
9.082773747E0,9.738788605E0,4.785645287E-3,4.785645287E-3
9.092457029E0,9.738788605E0,0.000000000E0,4.785645287E-3
9.102141247E0,9.734002113E0,0.000000000E0,9.571290575E-3
9.111826872E0,9.738788605E0,4.785645287E-3,4.785645287E-3
9.121513747E0,9.729216576E0,-4.785645287E-3,-4.785645287E-3
9.131198227E0,9.734002113E0,0.000000000E0,-1.435693540E-2
9.140882654E0,9.743574142E0,0.000000000E0,0.000000000E0
9.150568747E0,9.738788605E0,4.785645287E-3,-4.785645287E-3
9.160254216E0,9.724431038E0,9.571290575E-3,-4.785645287E-3
9.169941195E0,9.724431038E0,0.000000000E0,4.785645287E-3
9.179626456E0,9.734002113E0,0.000000000E0,2.392822690E-2
9.189311872E0,9.729216576E0,-1.435693540E-2,4.785645287E-3
9.198998331E0,9.729216576E0,9.571290575E-3,0.000000000E0
9.208684945E0,9.719645500E0,1.914258115E-2,-4.785645287E-3
9.218370727E0,9.748359680E0,-4.785645287E-3,9.571290575E-3
9.228055883E0,9.724431038E0,9.571290575E-3,0.000000000E0
9.237741664E0,9.719645500E0,1.914258115E-2,-9.571290575E-3
9.247427341E0,9.743574142E0,4.785645287E-3,4.785645287E-3
9.257114320E0,9.724431038E0,1.914258115E-2,0.000000000E0
9.266798799E0,9.729216576E0,4.785645287E-3,0.000000000E0
9.276484633E0,9.729216576E0,9.571290575E-3,0.000000000E0
9.286170258E0,9.738788605E0,-1.435693540E-2,-9.571290575E-3
9.295854841E0,9.729216576E0,-4.785645287E-3,4.785645287E-3
9.305539372E0,9.724431038E0,4.785645287E-3,-4.785645287E-3
9.315225622E0,9.724431038E0,1.435693540E-2,4.785645287E-3
9.324911560E0,9.734002113E0,4.785645287E-3,4.785645287E-3
9.334598852E0,9.729216576E0,9.571290575E-3,1.435693540E-2
9.344285049E0,9.724431038E0,0.000000000E0,-9.571290575E-3
9.353971039E0,9.734002113E0,-4.785645287E-3,-4.785645287E-3
9.363657497E0,9.738788605E0,-1.914258115E-2,-4.785645287E-3
9.373344424E0,9.714859962E0,4.785645287E-3,0.000000000E0
9.383029945E0,9.738788605E0,-4.785645287E-3,4.785645287E-3
9.392715310E0,9.734002113E0,-9.571290575E-3,0.000000000E0
9.402400258E0,9.724431038E0,4.785645287E-3,0.000000000E0
9.412087133E0,9.719645500E0,9.571290575E-3,9.571290575E-3
9.421773383E0,9.738788605E0,4.785645287E-3,0.000000000E0
9.431460154E0,9.748359680E0,1.435693540E-2,-1.435693540E-2
9.441146352E0,9.729216576E0,9.571290575E-3,-4.785645287E-3
9.450832289E0,9.734002113E0,4.785645287E-3,9.571290575E-3
9.460519737E0,9.724431038E0,-4.785645287E-3,9.571290575E-3
9.470205674E0,9.738788605E0,9.571290575E-3,1.435693540E-2
9.479892237E0,9.734002113E0,0.000000000E0,4.785645287E-3
9.489579789E0,9.724431038E0,-9.571290575E-3,4.785645287E-3
9.499265466E0,9.724431038E0,0.000000000E0,-4.785645287E-3
9.508952341E0,9.734002113E0,-4.785645287E-3,0.000000000E0
9.518637445E0,9.738788605E0,9.571290575E-3,-4.785645287E-3
9.528322029E0,9.738788605E0,4.785645287E-3,4.785645287E-3
9.538007393E0,9.734002113E0,9.571290575E-3,-4.785645287E-3
9.547692497E0,9.719645500E0,1.435693540E-2,4.785645287E-3
9.557377914E0,9.738788605E0,-1.435693540E-2,4.785645287E-3
9.567064320E0,9.734002113E0,4.785645287E-3,-1.435693540E-2
9.576751404E0,9.738788605E0,-4.785645287E-3,0.000000000E0
9.586438279E0,9.719645500E0,-4.785645287E-3,0.000000000E0
9.596125570E0,9.719645500E0,-4.785645287E-3,9.571290575E-3
9.605813383E0,9.738788605E0,9.571290575E-3,9.571290575E-3
9.615499789E0,9.743574142E0,0.000000000E0,0.000000000E0
9.625185674E0,9.743574142E0,-4.785645287E-3,4.785645287E-3
9.634871612E0,9.729216576E0,-4.785645287E-3,0.000000000E0
9.644557497E0,9.734002113E0,-1.435693540E-2,1.435693540E-2
9.654243799E0,9.729216576E0,0.000000000E0,-9.571290575E-3
9.663929581E0,9.724431038E0,0.000000000E0,4.785645287E-3
9.673615935E0,9.729216576E0,0.000000000E0,-4.785645287E-3
9.683301872E0,9.734002113E0,-4.785645287E-3,0.000000000E0
9.692987341E0,9.724431038E0,4.785645287E-3,1.435693540E-2
9.702674216E0,9.724431038E0,9.571290575E-3,9.571290575E-3
9.712359997E0,9.734002113E0,9.571290575E-3,9.571290575E-3
9.722047185E0,9.738788605E0,9.571290575E-3,9.571290575E-3
9.731733070E0,9.734002113E0,-1.435693540E-2,9.571290575E-3
9.741418591E0,9.724431038E0,9.571290575E-3,-4.785645287E-3
9.751105570E0,9.734002113E0,0.000000000E0,-4.785645287E-3
9.760792341E0,9.734002113E0,-9.571290575E-3,-4.785645287E-3
9.770478279E0,9.719645500E0,1.435693540E-2,-4.785645287E-3
9.780163956E0,9.738788605E0,1.435693540E-2,1.435693540E-2
9.789849216E0,9.719645500E0,0.000000000E0,9.571290575E-3
9.799535987E0,9.729216576E0,0.000000000E0,0.000000000E0
9.809220779E0,9.724431038E0,-9.571290575E-3,0.000000000E0
9.818906924E0,9.719645500E0,-4.785645287E-3,-4.785645287E-3
9.828593174E0,9.734002113E0,0.000000000E0,9.571290575E-3
9.838279477E0,9.753145218E0,-1.435693540E-2,-4.785645287E-3
9.847966560E0,9.729216576E0,0.000000000E0,-4.785645287E-3
9.857654060E0,9.734002113E0,0.000000000E0,0.000000000E0
9.867340154E0,9.734002113E0,4.785645287E-3,9.571290575E-3
9.877025779E0,9.724431038E0,4.785645287E-3,1.435693540E-2
9.886712549E0,9.734002113E0,1.914258115E-2,4.785645287E-3
9.896398695E0,9.729216576E0,-9.571290575E-3,-4.785645287E-3
9.906084060E0,9.743574142E0,4.785645287E-3,4.785645287E-3
9.915769424E0,9.724431038E0,4.785645287E-3,0.000000000E0
9.925454841E0,9.724431038E0,0.000000000E0,-4.785645287E-3
9.935141091E0,9.738788605E0,0.000000000E0,9.571290575E-3
9.944827081E0,9.724431038E0,4.785645287E-3,-1.914258115E-2
9.954513383E0,9.738788605E0,9.571290575E-3,-4.785645287E-3
9.964199893E0,9.734002113E0,9.571290575E-3,9.571290575E-3
9.973884685E0,9.724431038E0,4.785645287E-3,0.000000000E0
9.983571091E0,9.748359680E0,1.914258115E-2,-4.785645287E-3
9.993256872E0,9.734002113E0,-9.571290575E-3,4.785645287E-3
1.000294187E1,9.738788605E0,-9.571290575E-3,1.435693540E-2
1.001262713E1,9.738788605E0,0.000000000E0,-9.571290575E-3
1.002231411E1,9.724431038E0,-4.785645287E-3,-9.571290575E-3
1.003199968E1,9.743574142E0,-9.571290575E-3,4.785645287E-3
1.004168463E1,9.724431038E0,4.785645287E-3,-4.785645287E-3
1.005136854E1,9.724431038E0,-9.571290575E-3,4.785645287E-3
1.006105448E1,9.738788605E0,-4.785645287E-3,-4.785645287E-3
1.007074026E1,9.734002113E0,-4.785645287E-3,1.435693540E-2
1.008042510E1,9.743574142E0,-4.785645287E-3,0.000000000E0
1.009010942E1,9.724431038E0,-9.571290575E-3,-1.914258115E-2
1.009979651E1,9.729216576E0,-1.435693540E-2,1.435693540E-2
1.010948224E1,9.729216576E0,0.000000000E0,-4.785645287E-3
1.011916870E1,9.734002113E0,4.785645287E-3,0.000000000E0
1.012885442E1,9.729216576E0,-4.785645287E-3,-9.571290575E-3
1.013854010E1,9.724431038E0,-4.785645287E-3,1.914258115E-2
1.014822562E1,9.729216576E0,-4.785645287E-3,1.435693540E-2
1.015791125E1,9.729216576E0,4.785645287E-3,9.571290575E-3
1.016759760E1,9.729216576E0,9.571290575E-3,0.000000000E0
1.017728359E1,9.738788605E0,4.785645287E-3,4.785645287E-3
1.018697000E1,9.743574142E0,4.785645287E-3,1.914258115E-2
1.019665640E1,9.719645500E0,0.000000000E0,9.571290575E-3
1.020634276E1,9.719645500E0,0.000000000E0,-4.785645287E-3
1.021602890E1,9.724431038E0,0.000000000E0,-4.785645287E-3
1.022571500E1,9.714859962E0,-9.571290575E-3,4.785645287E-3
1.023540104E1,9.724431038E0,9.571290575E-3,0.000000000E0
1.024508625E1,9.738788605E0,-4.785645287E-3,4.785645287E-3
1.025477192E1,9.734002113E0,9.571290575E-3,4.785645287E-3
1.026445875E1,9.738788605E0,-1.435693540E-2,-4.785645287E-3
1.027414432E1,9.729216576E0,9.571290575E-3,4.785645287E-3
1.028383005E1,9.729216576E0,-4.785645287E-3,4.785645287E-3
1.029351609E1,9.734002113E0,9.571290575E-3,9.571290575E-3
1.030320192E1,9.724431038E0,4.785645287E-3,0.000000000E0
1.031288937E1,9.743574142E0,0.000000000E0,0.000000000E0
1.032257677E1,9.748359680E0,0.000000000E0,-4.785645287E-3
1.033226312E1,9.724431038E0,4.785645287E-3,0.000000000E0
1.034194937E1,9.734002113E0,9.571290575E-3,0.000000000E0
1.035163390E1,9.729216576E0,1.435693540E-2,4.785645287E-3
1.036131958E1,9.738788605E0,-4.785645287E-3,-9.571290575E-3
1.037100521E1,9.734002113E0,-4.785645287E-3,-4.785645287E-3
1.038069130E1,9.743574142E0,0.000000000E0,0.000000000E0
1.039037739E1,9.714859962E0,4.785645287E-3,4.785645287E-3
1.040006245E1,9.729216576E0,4.785645287E-3,-4.785645287E-3
1.040974875E1,9.738788605E0,-1.435693540E-2,0.000000000E0
1.041943510E1,9.729216576E0,9.571290575E-3,4.785645287E-3
1.042912104E1,9.738788605E0,0.000000000E0,-1.914258115E-2
1.043880718E1,9.729216576E0,9.571290575E-3,-9.571290575E-3
1.044849328E1,9.714859962E0,9.571290575E-3,0.000000000E0
1.045818041E1,9.724431038E0,4.785645287E-3,-4.785645287E-3
1.046786677E1,9.734002113E0,0.000000000E0,4.785645287E-3
1.047755416E1,9.724431038E0,0.000000000E0,9.571290575E-3
1.048724135E1,9.724431038E0,-4.785645287E-3,-9.571290575E-3
1.049692765E1,9.724431038E0,4.785645287E-3,4.785645287E-3
1.050661625E1,9.734002113E0,4.785645287E-3,4.785645287E-3
1.051630208E1,9.729216576E0,4.785645287E-3,0.000000000E0
1.052598713E1,9.719645500E0,4.785645287E-3,-1.435693540E-2
1.053567281E1,9.714859962E0,-1.435693540E-2,4.785645287E-3
1.054535880E1,9.724431038E0,-4.785645287E-3,-4.785645287E-3
1.055504453E1,9.700503349E0,1.435693540E-2,-4.785645287E-3
1.056473041E1,9.738788605E0,-9.571290575E-3,-9.571290575E-3
1.057441703E1,9.738788605E0,4.785645287E-3,0.000000000E0
1.058410338E1,9.748359680E0,9.571290575E-3,4.785645287E-3
1.059378995E1,9.738788605E0,4.785645287E-3,0.000000000E0
1.060347547E1,9.724431038E0,-1.435693540E-2,-4.785645287E-3
1.061316323E1,9.724431038E0,0.000000000E0,4.785645287E-3
1.062284974E1,9.757930756E0,-9.571290575E-3,1.435693540E-2
1.063253614E1,9.719645500E0,0.000000000E0,-4.785645287E-3
1.064222260E1,9.734002113E0,-9.571290575E-3,1.914258115E-2
1.065190802E1,9.719645500E0,-1.435693540E-2,0.000000000E0
1.066159422E1,9.724431038E0,9.571290575E-3,4.785645287E-3
1.067127963E1,9.724431038E0,9.571290575E-3,-1.435693540E-2
1.068096724E1,9.734002113E0,-4.785645287E-3,9.571290575E-3
1.069065349E1,9.729216576E0,4.785645287E-3,-4.785645287E-3
1.070034015E1,9.734002113E0,0.000000000E0,0.000000000E0
1.071002661E1,9.738788605E0,9.571290575E-3,4.785645287E-3
1.071971250E1,9.743574142E0,2.392822690E-2,4.785645287E-3
1.072939885E1,9.734002113E0,9.571290575E-3,0.000000000E0
1.073908609E1,9.734002113E0,4.785645287E-3,-9.571290575E-3
1.074877234E1,9.729216576E0,9.571290575E-3,0.000000000E0
1.075845781E1,9.724431038E0,4.785645287E-3,9.571290575E-3
1.076814437E1,9.729216576E0,1.435693540E-2,0.000000000E0
1.077783036E1,9.724431038E0,0.000000000E0,-4.785645287E-3
1.078751713E1,9.724431038E0,9.571290575E-3,-4.785645287E-3
1.079720411E1,9.734002113E0,4.785645287E-3,4.785645287E-3
1.080689010E1,9.743574142E0,9.571290575E-3,0.000000000E0
1.081657599E1,9.734002113E0,1.435693540E-2,-9.571290575E-3
1.082626312E1,9.719645500E0,-4.785645287E-3,0.000000000E0
1.083595000E1,9.729216576E0,-4.785645287E-3,9.571290575E-3
1.084563656E1,9.724431038E0,-9.571290575E-3,-9.571290575E-3
1.085532390E1,9.738788605E0,-4.785645287E-3,0.000000000E0
1.086501026E1,9.729216576E0,-4.785645287E-3,0.000000000E0
1.087469692E1,9.729216576E0,-2.392822690E-2,-4.785645287E-3
1.088438328E1,9.734002113E0,-4.785645287E-3,-9.571290575E-3
1.089406968E1,9.734002113E0,0.000000000E0,4.785645287E-3
1.090375635E1,9.724431038E0,0.000000000E0,4.785645287E-3
1.091344359E1,9.729216576E0,-9.571290575E-3,-4.785645287E-3
1.092313125E1,9.724431038E0,0.000000000E0,0.000000000E0
1.093281672E1,9.734002113E0,-9.571290575E-3,0.000000000E0
1.094250146E1,9.724431038E0,0.000000000E0,-1.435693540E-2
1.095218599E1,9.729216576E0,0.000000000E0,-9.571290575E-3
1.096187317E1,9.729216576E0,0.000000000E0,4.785645287E-3
1.097156073E1,9.729216576E0,4.785645287E-3,-4.785645287E-3
1.098124562E1,9.729216576E0,0.000000000E0,0.000000000E0
1.099093177E1,9.724431038E0,-4.785645287E-3,0.000000000E0
1.100061719E1,9.724431038E0,4.785645287E-3,4.785645287E-3
1.101030370E1,9.743574142E0,9.571290575E-3,0.000000000E0
1.101998927E1,9.719645500E0,-9.571290575E-3,-1.435693540E-2
1.102967489E1,9.724431038E0,4.785645287E-3,1.435693540E-2
1.103936104E1,9.738788605E0,9.571290575E-3,0.000000000E0
1.104904620E1,9.729216576E0,9.571290575E-3,4.785645287E-3
1.105873224E1,9.738788605E0,4.785645287E-3,1.435693540E-2
1.106841833E1,9.729216576E0,4.785645287E-3,-9.571290575E-3
1.107810458E1,9.734002113E0,-1.435693540E-2,4.785645287E-3
1.108779062E1,9.724431038E0,-9.571290575E-3,4.785645287E-3
1.109747781E1,9.743574142E0,0.000000000E0,4.785645287E-3
1.110716448E1,9.719645500E0,-1.435693540E-2,9.571290575E-3
1.111685021E1,9.714859962E0,0.000000000E0,9.571290575E-3
1.112653432E1,9.734002113E0,4.785645287E-3,-4.785645287E-3
1.113621994E1,9.738788605E0,4.785645287E-3,4.785645287E-3
1.114590396E1,9.729216576E0,-9.571290575E-3,4.785645287E-3
1.115558927E1,9.724431038E0,0.000000000E0,-1.435693540E-2
1.116527640E1,9.710074425E0,-9.571290575E-3,4.785645287E-3
1.117496349E1,9.743574142E0,-4.785645287E-3,0.000000000E0
1.118464854E1,9.729216576E0,9.571290575E-3,-4.785645287E-3
1.119433422E1,9.719645500E0,0.000000000E0,-4.785645287E-3
1.120401870E1,9.743574142E0,0.000000000E0,-1.435693540E-2
1.121370416E1,9.724431038E0,-9.571290575E-3,4.785645287E-3
1.122338953E1,9.734002113E0,4.785645287E-3,1.435693540E-2
1.123307453E1,9.734002113E0,-9.571290575E-3,1.914258115E-2
1.124275969E1,9.719645500E0,-1.435693540E-2,4.785645287E-3
1.125244583E1,9.738788605E0,-9.571290575E-3,4.785645287E-3
1.126213177E1,9.729216576E0,-4.785645287E-3,0.000000000E0
1.127181724E1,9.734002113E0,4.785645287E-3,0.000000000E0
1.128150260E1,9.738788605E0,0.000000000E0,4.785645287E-3
1.129118744E1,9.729216576E0,0.000000000E0,0.000000000E0
1.130087187E1,9.724431038E0,-4.785645287E-3,4.785645287E-3
1.131055672E1,9.714859962E0,-9.571290575E-3,4.785645287E-3
1.132024192E1,9.734002113E0,-1.435693540E-2,0.000000000E0
1.132992739E1,9.738788605E0,-9.571290575E-3,-4.785645287E-3
1.133961239E1,9.719645500E0,9.571290575E-3,9.571290575E-3
1.134929708E1,9.734002113E0,9.571290575E-3,-4.785645287E-3
1.135898187E1,9.729216576E0,-9.571290575E-3,9.571290575E-3
1.136866651E1,9.738788605E0,0.000000000E0,1.435693540E-2
1.137835234E1,9.724431038E0,9.571290575E-3,0.000000000E0
1.138803776E1,9.724431038E0,4.785645287E-3,-4.785645287E-3
1.139772370E1,9.729216576E0,9.571290575E-3,0.000000000E0
1.140740974E1,9.734002113E0,4.785645287E-3,4.785645287E-3
1.141709614E1,9.738788605E0,0.000000000E0,9.571290575E-3
1.142678203E1,9.734002113E0,-9.571290575E-3,1.435693540E-2
1.143646739E1,9.729216576E0,9.571290575E-3,-4.785645287E-3
1.144615354E1,9.729216576E0,9.571290575E-3,1.435693540E-2
1.145583875E1,9.729216576E0,0.000000000E0,4.785645287E-3
1.146552297E1,9.738788605E0,4.785645287E-3,2.392822690E-2
1.147520849E1,9.724431038E0,4.785645287E-3,9.571290575E-3
1.148489333E1,9.738788605E0,0.000000000E0,4.785645287E-3
1.149457854E1,9.734002113E0,-4.785645287E-3,4.785645287E-3
1.150426286E1,9.729216576E0,-1.435693540E-2,9.571290575E-3
1.151394719E1,9.734002113E0,-4.785645287E-3,-4.785645287E-3
1.152363192E1,9.724431038E0,9.571290575E-3,-1.435693540E-2
1.153331713E1,9.719645500E0,9.571290575E-3,0.000000000E0
1.154300271E1,9.743574142E0,-4.785645287E-3,9.571290575E-3
1.155268776E1,9.734002113E0,9.571290575E-3,-4.785645287E-3
1.156237370E1,9.748359680E0,-4.785645287E-3,4.785645287E-3
1.157205969E1,9.729216576E0,9.571290575E-3,0.000000000E0
1.158174406E1,9.738788605E0,-4.785645287E-3,-4.785645287E-3
1.159142911E1,9.714859962E0,4.785645287E-3,9.571290575E-3
1.160111354E1,9.729216576E0,0.000000000E0,0.000000000E0
1.161079864E1,9.729216576E0,9.571290575E-3,0.000000000E0
1.162048453E1,9.719645500E0,9.571290575E-3,4.785645287E-3
1.163016906E1,9.734002113E0,4.785645287E-3,1.914258115E-2
1.163985385E1,9.729216576E0,1.435693540E-2,0.000000000E0
1.164953916E1,9.719645500E0,0.000000000E0,1.435693540E-2
1.165922453E1,9.710074425E0,-1.435693540E-2,4.785645287E-3
1.166890927E1,9.729216576E0,-4.785645287E-3,4.785645287E-3
1.167859401E1,9.748359680E0,1.435693540E-2,1.914258115E-2
1.168827995E1,9.738788605E0,-1.435693540E-2,1.435693540E-2
1.169796494E1,9.734002113E0,-1.435693540E-2,4.785645287E-3
1.170765125E1,9.724431038E0,4.785645287E-3,1.435693540E-2
1.171733724E1,9.734002113E0,9.571290575E-3,4.785645287E-3
1.172702255E1,9.724431038E0,9.571290575E-3,0.000000000E0
1.173670838E1,9.738788605E0,4.785645287E-3,0.000000000E0
1.174639463E1,9.729216576E0,4.785645287E-3,4.785645287E-3
1.175608073E1,9.724431038E0,0.000000000E0,4.785645287E-3
1.176576646E1,9.724431038E0,-4.785645287E-3,0.000000000E0
1.177545286E1,9.738788605E0,9.571290575E-3,-1.435693540E-2
1.178513927E1,9.729216576E0,0.000000000E0,-4.785645287E-3
1.179482505E1,9.734002113E0,0.000000000E0,1.435693540E-2
1.180451047E1,9.719645500E0,9.571290575E-3,9.571290575E-3
1.181419536E1,9.738788605E0,4.785645287E-3,4.785645287E-3
1.182387948E1,9.719645500E0,4.785645287E-3,9.571290575E-3
1.183356406E1,9.724431038E0,-9.571290575E-3,9.571290575E-3
1.184324968E1,9.729216576E0,4.785645287E-3,9.571290575E-3
1.185293599E1,9.724431038E0,-4.785645287E-3,1.914258115E-2
1.186261953E1,9.729216576E0,9.571290575E-3,4.785645287E-3
1.187230625E1,9.734002113E0,0.000000000E0,9.571290575E-3
1.188199151E1,9.729216576E0,-4.785645287E-3,-4.785645287E-3
1.189167625E1,9.729216576E0,0.000000000E0,4.785645287E-3
1.190136125E1,9.734002113E0,4.785645287E-3,-4.785645287E-3
1.191104786E1,9.729216576E0,0.000000000E0,1.435693540E-2
1.192073401E1,9.734002113E0,4.785645287E-3,-4.785645287E-3
1.193042010E1,9.738788605E0,9.571290575E-3,0.000000000E0
1.194010599E1,9.738788605E0,4.785645287E-3,-4.785645287E-3
1.194979166E1,9.724431038E0,-4.785645287E-3,4.785645287E-3
1.195947672E1,9.743574142E0,4.785645287E-3,0.000000000E0
1.196916229E1,9.738788605E0,0.000000000E0,0.000000000E0
1.197884776E1,9.724431038E0,9.571290575E-3,0.000000000E0
1.198853297E1,9.714859962E0,-4.785645287E-3,4.785645287E-3
1.199821885E1,9.729216576E0,4.785645287E-3,4.785645287E-3
1.200790510E1,9.734002113E0,9.571290575E-3,4.785645287E-3
1.201759021E1,9.729216576E0,1.435693540E-2,-4.785645287E-3
1.202727583E1,9.729216576E0,-4.785645287E-3,9.571290575E-3
1.203696281E1,9.729216576E0,0.000000000E0,-9.571290575E-3
1.204664823E1,9.724431038E0,9.571290575E-3,4.785645287E-3
1.205633297E1,9.738788605E0,-9.571290575E-3,-4.785645287E-3
1.206601724E1,9.743574142E0,9.571290575E-3,4.785645287E-3
1.207570307E1,9.748359680E0,4.785645287E-3,9.571290575E-3
1.208538849E1,9.738788605E0,-4.785645287E-3,1.914258115E-2
1.209507359E1,9.729216576E0,4.785645287E-3,0.000000000E0
1.210475844E1,9.729216576E0,-4.785645287E-3,1.914258115E-2
1.211444390E1,9.734002113E0,4.785645287E-3,0.000000000E0
1.212412974E1,9.719645500E0,-9.571290575E-3,0.000000000E0
1.213381526E1,9.729216576E0,1.435693540E-2,4.785645287E-3
1.214350114E1,9.724431038E0,-1.435693540E-2,-4.785645287E-3
1.215318698E1,9.734002113E0,-9.571290575E-3,4.785645287E-3
1.216287114E1,9.748359680E0,9.571290575E-3,4.785645287E-3
1.217255651E1,9.719645500E0,0.000000000E0,9.571290575E-3
1.218224166E1,9.724431038E0,4.785645287E-3,4.785645287E-3
1.219192620E1,9.753145218E0,0.000000000E0,4.785645287E-3
1.220161104E1,9.734002113E0,4.785645287E-3,-9.571290575E-3
1.221129646E1,9.734002113E0,0.000000000E0,-4.785645287E-3
1.222097989E1,9.734002113E0,4.785645287E-3,0.000000000E0
1.223066401E1,9.748359680E0,4.785645287E-3,1.435693540E-2
1.224034870E1,9.734002113E0,4.785645287E-3,9.571290575E-3
1.225003208E1,9.743574142E0,-9.571290575E-3,-9.571290575E-3
1.225971567E1,9.738788605E0,-1.435693540E-2,4.785645287E-3
1.226940062E1,9.724431038E0,-9.571290575E-3,4.785645287E-3
1.227908604E1,9.748359680E0,-9.571290575E-3,0.000000000E0
1.228877041E1,9.729216576E0,4.785645287E-3,4.785645287E-3
1.229845484E1,9.719645500E0,4.785645287E-3,9.571290575E-3
1.230813849E1,9.729216576E0,0.000000000E0,1.435693540E-2
1.231782453E1,9.753145218E0,1.435693540E-2,-9.571290575E-3
1.232750896E1,9.753145218E0,4.785645287E-3,0.000000000E0
1.233719427E1,9.729216576E0,-4.785645287E-3,4.785645287E-3
1.234688031E1,9.724431038E0,9.571290575E-3,4.785645287E-3
1.235656640E1,9.734002113E0,-4.785645287E-3,9.571290575E-3
1.236625067E1,9.738788605E0,0.000000000E0,9.571290575E-3
1.237593625E1,9.729216576E0,-9.571290575E-3,-4.785645287E-3
1.238562146E1,9.734002113E0,-4.785645287E-3,4.785645287E-3
1.239530718E1,9.729216576E0,4.785645287E-3,9.571290575E-3
1.240499166E1,9.738788605E0,-4.785645287E-3,4.785645287E-3
1.241467682E1,9.734002113E0,-9.571290575E-3,4.785645287E-3
1.242436078E1,9.729216576E0,0.000000000E0,9.571290575E-3
1.243404625E1,9.734002113E0,-9.571290575E-3,4.785645287E-3
1.244372937E1,9.724431038E0,-4.785645287E-3,9.571290575E-3
1.245341437E1,9.738788605E0,-4.785645287E-3,4.785645287E-3
1.246310000E1,9.734002113E0,-1.435693540E-2,9.571290575E-3
1.247278604E1,9.729216576E0,-4.785645287E-3,9.571290575E-3
1.248246984E1,9.729216576E0,-1.435693540E-2,4.785645287E-3
1.249215453E1,9.734002113E0,-1.435693540E-2,-4.785645287E-3
1.250183937E1,9.738788605E0,9.571290575E-3,4.785645287E-3
1.251152583E1,9.738788605E0,4.785645287E-3,4.785645287E-3
1.252121140E1,9.738788605E0,-1.435693540E-2,0.000000000E0
1.253089724E1,9.734002113E0,4.785645287E-3,0.000000000E0
1.254058234E1,9.724431038E0,-1.435693540E-2,4.785645287E-3
1.255026797E1,9.729216576E0,2.392822690E-2,-4.785645287E-3
1.255995354E1,9.734002113E0,-4.785645287E-3,4.785645287E-3
1.256963979E1,9.729216576E0,1.914258115E-2,0.000000000E0
1.257932406E1,9.724431038E0,1.435693540E-2,0.000000000E0
1.258900719E1,9.738788605E0,-4.785645287E-3,4.785645287E-3
1.259869094E1,9.748359680E0,4.785645287E-3,9.571290575E-3
1.260837437E1,9.724431038E0,4.785645287E-3,9.571290575E-3
1.261805797E1,9.729216576E0,-1.435693540E-2,-4.785645287E-3
1.262774239E1,9.734002113E0,0.000000000E0,1.435693540E-2
1.263742786E1,9.738788605E0,-1.914258115E-2,1.435693540E-2
1.264711406E1,9.729216576E0,0.000000000E0,-4.785645287E-3
1.265679937E1,9.724431038E0,0.000000000E0,-4.785645287E-3
1.266648484E1,9.724431038E0,-1.435693540E-2,9.571290575E-3
1.267617015E1,9.734002113E0,-4.785645287E-3,9.571290575E-3
1.268585599E1,9.719645500E0,-4.785645287E-3,4.785645287E-3
1.269553880E1,9.724431038E0,0.000000000E0,-1.435693540E-2
1.270522411E1,9.724431038E0,-1.914258115E-2,-1.435693540E-2
1.271490937E1,9.729216576E0,0.000000000E0,-1.435693540E-2
1.272459453E1,9.724431038E0,0.000000000E0,9.571290575E-3
1.273427968E1,9.714859962E0,-9.571290575E-3,-4.785645287E-3
1.274396521E1,9.714859962E0,4.785645287E-3,1.435693540E-2
1.275365031E1,9.729216576E0,4.785645287E-3,0.000000000E0
1.276333406E1,9.734002113E0,1.435693540E-2,9.571290575E-3
1.277301979E1,9.724431038E0,0.000000000E0,-9.571290575E-3
1.278270552E1,9.724431038E0,-4.785645287E-3,9.571290575E-3
1.279238948E1,9.729216576E0,4.785645287E-3,-4.785645287E-3
1.280207317E1,9.734002113E0,1.435693540E-2,0.000000000E0
1.281175797E1,9.743574142E0,9.571290575E-3,1.914258115E-2
1.282144260E1,9.738788605E0,-4.785645287E-3,4.785645287E-3
1.283112755E1,9.738788605E0,-1.435693540E-2,4.785645287E-3
1.284081260E1,9.734002113E0,0.000000000E0,9.571290575E-3
1.285049797E1,9.743574142E0,0.000000000E0,1.435693540E-2
1.286018271E1,9.734002113E0,9.571290575E-3,0.000000000E0
1.286986739E1,9.734002113E0,4.785645287E-3,1.914258115E-2
1.287955317E1,9.719645500E0,4.785645287E-3,0.000000000E0
1.288923911E1,9.738788605E0,9.571290575E-3,9.571290575E-3
1.289892448E1,9.729216576E0,0.000000000E0,-9.571290575E-3
1.290860927E1,9.734002113E0,0.000000000E0,9.571290575E-3
1.291829500E1,9.734002113E0,0.000000000E0,0.000000000E0
1.292797932E1,9.729216576E0,9.571290575E-3,4.785645287E-3
1.293766380E1,9.734002113E0,-1.435693540E-2,1.435693540E-2
1.294734906E1,9.743574142E0,9.571290575E-3,-4.785645287E-3
1.295703406E1,9.724431038E0,0.000000000E0,0.000000000E0
1.296671875E1,9.738788605E0,-1.435693540E-2,-4.785645287E-3
1.297640302E1,9.734002113E0,-4.785645287E-3,0.000000000E0
1.298608750E1,9.734002113E0,0.000000000E0,9.571290575E-3
1.299577151E1,9.719645500E0,0.000000000E0,0.000000000E0
1.300545531E1,9.724431038E0,-9.571290575E-3,0.000000000E0
1.301513963E1,9.729216576E0,0.000000000E0,1.435693540E-2
1.302482396E1,9.734002113E0,0.000000000E0,9.571290575E-3
1.303450781E1,9.729216576E0,4.785645287E-3,1.435693540E-2
1.304419281E1,9.743574142E0,4.785645287E-3,-4.785645287E-3
1.305387932E1,9.734002113E0,-1.435693540E-2,4.785645287E-3
1.306356323E1,9.734002113E0,-4.785645287E-3,4.785645287E-3
1.307324599E1,9.724431038E0,9.571290575E-3,9.571290575E-3
1.308293088E1,9.734002113E0,-4.785645287E-3,4.785645287E-3
1.309261562E1,9.738788605E0,0.000000000E0,0.000000000E0
1.310230026E1,9.729216576E0,-9.571290575E-3,-4.785645287E-3
1.311198557E1,9.738788605E0,-1.914258115E-2,9.571290575E-3
1.312166984E1,9.743574142E0,-9.571290575E-3,4.785645287E-3
1.313135385E1,9.719645500E0,1.435693540E-2,4.785645287E-3
1.314103906E1,9.729216576E0,1.435693540E-2,4.785645287E-3
1.315072494E1,9.729216576E0,1.914258115E-2,-9.571290575E-3
1.316041067E1,9.738788605E0,4.785645287E-3,4.785645287E-3
1.317009588E1,9.729216576E0,4.785645287E-3,-4.785645287E-3
1.317978083E1,9.719645500E0,0.000000000E0,-4.785645287E-3
1.318946463E1,9.729216576E0,-4.785645287E-3,4.785645287E-3
1.319914901E1,9.729216576E0,0.000000000E0,0.000000000E0
1.320883146E1,9.724431038E0,-4.785645287E-3,0.000000000E0
1.321851578E1,9.729216576E0,9.571290575E-3,9.571290575E-3
1.322820036E1,9.729216576E0,0.000000000E0,0.000000000E0
1.323788239E1,9.729216576E0,1.435693540E-2,9.571290575E-3
1.324756573E1,9.738788605E0,-9.571290575E-3,4.785645287E-3
1.325724911E1,9.738788605E0,-1.435693540E-2,-9.571290575E-3
1.326693265E1,9.738788605E0,-4.785645287E-3,4.785645287E-3
1.327661807E1,9.738788605E0,4.785645287E-3,9.571290575E-3
1.328630265E1,9.748359680E0,9.571290575E-3,9.571290575E-3
1.329598713E1,9.729216576E0,0.000000000E0,9.571290575E-3
1.330567239E1,9.743574142E0,0.000000000E0,9.571290575E-3
1.331535666E1,9.724431038E0,-9.571290575E-3,4.785645287E-3
1.332504161E1,9.738788605E0,-4.785645287E-3,4.785645287E-3
1.333472791E1,9.734002113E0,4.785645287E-3,-1.435693540E-2
1.334441104E1,9.729216576E0,-4.785645287E-3,9.571290575E-3
1.335409604E1,9.738788605E0,4.785645287E-3,4.785645287E-3
1.336377979E1,9.729216576E0,-9.571290575E-3,9.571290575E-3
1.337346479E1,9.743574142E0,0.000000000E0,4.785645287E-3
1.338314906E1,9.729216576E0,0.000000000E0,-4.785645287E-3
1.339283234E1,9.743574142E0,-4.785645287E-3,0.000000000E0
1.340251604E1,9.724431038E0,9.571290575E-3,9.571290575E-3
1.341220036E1,9.738788605E0,-4.785645287E-3,-4.785645287E-3
1.342188531E1,9.734002113E0,-1.435693540E-2,9.571290575E-3
1.343157021E1,9.743574142E0,9.571290575E-3,0.000000000E0
1.344125281E1,9.748359680E0,0.000000000E0,-4.785645287E-3
1.345093594E1,9.724431038E0,4.785645287E-3,-4.785645287E-3
1.346061979E1,9.734002113E0,-9.571290575E-3,0.000000000E0
1.347030401E1,9.729216576E0,4.785645287E-3,-4.785645287E-3
1.347998812E1,9.729216576E0,-4.785645287E-3,4.785645287E-3
1.348967317E1,9.724431038E0,-4.785645287E-3,9.571290575E-3
1.349935906E1,9.724431038E0,4.785645287E-3,4.785645287E-3
1.350904380E1,9.738788605E0,4.785645287E-3,4.785645287E-3
1.351872875E1,9.729216576E0,-4.785645287E-3,-4.785645287E-3
1.352841333E1,9.724431038E0,9.571290575E-3,4.785645287E-3
1.353809786E1,9.724431038E0,-9.571290575E-3,9.571290575E-3
1.354778203E1,9.734002113E0,-4.785645287E-3,-9.571290575E-3
1.355746739E1,9.729216576E0,-4.785645287E-3,4.785645287E-3
1.356715192E1,9.738788605E0,-9.571290575E-3,-4.785645287E-3
1.357683677E1,9.738788605E0,0.000000000E0,-4.785645287E-3
1.358652224E1,9.734002113E0,1.435693540E-2,1.435693540E-2
1.359620609E1,9.734002113E0,4.785645287E-3,1.435693540E-2
1.360589005E1,9.729216576E0,-1.914258115E-2,9.571290575E-3
1.361557344E1,9.734002113E0,1.435693540E-2,9.571290575E-3
1.362525864E1,9.729216576E0,-4.785645287E-3,4.785645287E-3
1.363494244E1,9.729216576E0,0.000000000E0,4.785645287E-3
1.364462594E1,9.729216576E0,1.435693540E-2,-4.785645287E-3
1.365431067E1,9.734002113E0,-9.571290575E-3,0.000000000E0
1.366399562E1,9.729216576E0,-4.785645287E-3,-4.785645287E-3
1.367367958E1,9.729216576E0,4.785645287E-3,9.571290575E-3
1.368336401E1,9.738788605E0,-4.785645287E-3,9.571290575E-3
1.369304844E1,9.743574142E0,0.000000000E0,9.571290575E-3
1.370273406E1,9.748359680E0,0.000000000E0,4.785645287E-3
1.371241901E1,9.719645500E0,-4.785645287E-3,9.571290575E-3
1.372210344E1,9.738788605E0,4.785645287E-3,9.571290575E-3
1.373178880E1,9.748359680E0,-9.571290575E-3,4.785645287E-3
1.374147349E1,9.724431038E0,1.435693540E-2,-4.785645287E-3
1.375115870E1,9.738788605E0,0.000000000E0,4.785645287E-3
1.376084416E1,9.729216576E0,-9.571290575E-3,-4.785645287E-3
1.377052953E1,9.734002113E0,-1.435693540E-2,-9.571290575E-3
1.378021567E1,9.724431038E0,-1.435693540E-2,0.000000000E0
1.378989937E1,9.729216576E0,4.785645287E-3,4.785645287E-3
1.379958380E1,9.743574142E0,9.571290575E-3,-1.435693540E-2
1.380926906E1,9.724431038E0,-4.785645287E-3,9.571290575E-3
1.381895370E1,9.734002113E0,0.000000000E0,0.000000000E0
1.382863828E1,9.724431038E0,-1.435693540E-2,9.571290575E-3
1.383832505E1,9.748359680E0,-9.571290575E-3,0.000000000E0
1.384800922E1,9.734002113E0,0.000000000E0,-4.785645287E-3
1.385769307E1,9.729216576E0,-4.785645287E-3,0.000000000E0
1.386737682E1,9.729216576E0,4.785645287E-3,-4.785645287E-3
1.387706156E1,9.724431038E0,0.000000000E0,4.785645287E-3
1.388674614E1,9.738788605E0,0.000000000E0,9.571290575E-3
1.389643187E1,9.729216576E0,0.000000000E0,-4.785645287E-3
1.390611666E1,9.719645500E0,9.571290575E-3,0.000000000E0
1.391580234E1,9.729216576E0,0.000000000E0,-4.785645287E-3
1.392548588E1,9.734002113E0,1.435693540E-2,4.785645287E-3
1.393517291E1,9.734002113E0,-1.435693540E-2,-4.785645287E-3
1.394485896E1,9.734002113E0,-9.571290575E-3,9.571290575E-3
1.395454271E1,9.724431038E0,-9.571290575E-3,4.785645287E-3
1.396422859E1,9.724431038E0,-1.914258115E-2,-9.571290575E-3
1.397391380E1,9.734002113E0,-1.435693540E-2,1.914258115E-2
1.398359875E1,9.719645500E0,-9.571290575E-3,9.571290575E-3
1.399328474E1,9.729216576E0,0.000000000E0,4.785645287E-3
1.400297021E1,9.724431038E0,4.785645287E-3,-9.571290575E-3
1.401265557E1,9.710074425E0,-4.785645287E-3,1.435693540E-2
1.402233948E1,9.724431038E0,-1.435693540E-2,0.000000000E0
1.403202338E1,9.734002113E0,9.571290575E-3,4.785645287E-3
1.404170651E1,9.719645500E0,-4.785645287E-3,4.785645287E-3
1.405139057E1,9.743574142E0,9.571290575E-3,4.785645287E-3
1.406107448E1,9.729216576E0,2.392822690E-2,4.785645287E-3
1.407075958E1,9.738788605E0,-4.785645287E-3,9.571290575E-3
1.408044437E1,9.734002113E0,0.000000000E0,-1.435693540E-2
1.409012786E1,9.738788605E0,0.000000000E0,4.785645287E-3
1.409981140E1,9.729216576E0,-1.435693540E-2,4.785645287E-3
1.410949656E1,9.734002113E0,-1.435693540E-2,1.435693540E-2
1.411918031E1,9.734002113E0,-1.435693540E-2,4.785645287E-3
1.412886536E1,9.734002113E0,-1.435693540E-2,9.571290575E-3
1.413855073E1,9.738788605E0,0.000000000E0,4.785645287E-3
1.414823640E1,9.738788605E0,4.785645287E-3,-9.571290575E-3
1.415792172E1,9.729216576E0,4.785645287E-3,4.785645287E-3
1.416760781E1,9.724431038E0,9.571290575E-3,-4.785645287E-3
1.417729333E1,9.734002113E0,-4.785645287E-3,9.571290575E-3
1.418697828E1,9.719645500E0,-9.571290575E-3,9.571290575E-3
1.419666406E1,9.729216576E0,4.785645287E-3,4.785645287E-3
1.420635000E1,9.729216576E0,0.000000000E0,4.785645287E-3
1.421603594E1,9.734002113E0,9.571290575E-3,4.785645287E-3
1.422572146E1,9.734002113E0,-4.785645287E-3,0.000000000E0
1.423540703E1,9.719645500E0,1.435693540E-2,-9.571290575E-3
1.424509385E1,9.738788605E0,4.785645287E-3,0.000000000E0
1.425477958E1,9.734002113E0,9.571290575E-3,-4.785645287E-3
1.426446385E1,9.719645500E0,4.785645287E-3,-4.785645287E-3
1.427414885E1,9.734002113E0,4.785645287E-3,-4.785645287E-3
1.428383370E1,9.738788605E0,9.571290575E-3,4.785645287E-3
1.429351875E1,9.738788605E0,2.392822690E-2,9.571290575E-3
1.430320166E1,9.738788605E0,1.435693540E-2,-4.785645287E-3
1.431288588E1,9.714859962E0,9.571290575E-3,4.785645287E-3
1.432256969E1,9.729216576E0,-2.392822690E-2,4.785645287E-3
1.433225354E1,9.724431038E0,4.785645287E-3,9.571290575E-3
1.434193791E1,9.748359680E0,0.000000000E0,9.571290575E-3
1.435162281E1,9.748359680E0,0.000000000E0,9.571290575E-3
1.436130724E1,9.734002113E0,4.785645287E-3,4.785645287E-3
1.437098942E1,9.710074425E0,-1.914258115E-2,0.000000000E0
1.438067411E1,9.719645500E0,-1.914258115E-2,0.000000000E0
1.439035838E1,9.734002113E0,4.785645287E-3,0.000000000E0
1.440004364E1,9.734002113E0,-9.571290575E-3,1.435693540E-2
1.440972807E1,9.724431038E0,-4.785645287E-3,9.571290575E-3
1.441941234E1,9.743574142E0,9.571290575E-3,4.785645287E-3
1.442909849E1,9.729216576E0,-4.785645287E-3,-9.571290575E-3
1.443878088E1,9.724431038E0,1.435693540E-2,0.000000000E0
1.444846557E1,9.729216576E0,-4.785645287E-3,9.571290575E-3
1.445814994E1,9.729216576E0,0.000000000E0,4.785645287E-3
1.446783547E1,9.724431038E0,-4.785645287E-3,9.571290575E-3
1.447752146E1,9.748359680E0,4.785645287E-3,-1.435693540E-2
1.448720771E1,9.738788605E0,0.000000000E0,-4.785645287E-3
1.449689255E1,9.734002113E0,-1.435693540E-2,0.000000000E0
1.450657609E1,9.734002113E0,0.000000000E0,-9.571290575E-3
1.451626140E1,9.729216576E0,0.000000000E0,4.785645287E-3
1.452594672E1,9.729216576E0,4.785645287E-3,-4.785645287E-3
1.453563130E1,9.738788605E0,0.000000000E0,-4.785645287E-3
1.454531588E1,9.753145218E0,-4.785645287E-3,1.435693540E-2
1.455500120E1,9.743574142E0,-4.785645287E-3,0.000000000E0
1.456468744E1,9.719645500E0,9.571290575E-3,0.000000000E0
1.457437344E1,9.710074425E0,1.435693540E-2,4.785645287E-3
1.458405916E1,9.734002113E0,-4.785645287E-3,9.571290575E-3
1.459374536E1,9.734002113E0,-9.571290575E-3,4.785645287E-3
1.460343182E1,9.724431038E0,9.571290575E-3,9.571290575E-3
1.461311698E1,9.734002113E0,4.785645287E-3,0.000000000E0
1.462280234E1,9.734002113E0,1.914258115E-2,0.000000000E0
1.463248687E1,9.719645500E0,9.571290575E-3,0.000000000E0
1.464217239E1,9.743574142E0,4.785645287E-3,4.785645287E-3
1.465185849E1,9.748359680E0,4.785645287E-3,1.435693540E-2
1.466154505E1,9.729216576E0,-4.785645287E-3,1.435693540E-2
1.467122906E1,9.729216576E0,9.571290575E-3,-4.785645287E-3
1.468091385E1,9.738788605E0,4.785645287E-3,4.785645287E-3
1.469059885E1,9.734002113E0,9.571290575E-3,-4.785645287E-3
1.470028396E1,9.738788605E0,-4.785645287E-3,4.785645287E-3
1.470997031E1,9.724431038E0,0.000000000E0,4.785645287E-3
1.471965640E1,9.724431038E0,-4.785645287E-3,4.785645287E-3
1.472934323E1,9.734002113E0,-9.571290575E-3,4.785645287E-3
1.473902927E1,9.734002113E0,-4.785645287E-3,4.785645287E-3
1.474871500E1,9.743574142E0,-4.785645287E-3,-4.785645287E-3
1.475839963E1,9.729216576E0,0.000000000E0,9.571290575E-3
1.476808265E1,9.738788605E0,4.785645287E-3,0.000000000E0
1.477776786E1,9.738788605E0,4.785645287E-3,4.785645287E-3
1.478745166E1,9.743574142E0,0.000000000E0,1.435693540E-2
1.479713703E1,9.729216576E0,4.785645287E-3,0.000000000E0
1.480682203E1,9.714859962E0,-1.435693540E-2,4.785645287E-3
1.481650687E1,9.714859962E0,-9.571290575E-3,4.785645287E-3
1.482619213E1,9.729216576E0,4.785645287E-3,9.571290575E-3
1.483587849E1,9.714859962E0,-4.785645287E-3,-9.571290575E-3
1.484556416E1,9.719645500E0,1.435693540E-2,-4.785645287E-3
1.485524844E1,9.729216576E0,-4.785645287E-3,4.785645287E-3
1.486493422E1,9.719645500E0,-1.435693540E-2,0.000000000E0
1.487461974E1,9.738788605E0,9.571290575E-3,9.571290575E-3
1.488430562E1,9.738788605E0,-1.435693540E-2,2.392822690E-2
1.489399094E1,9.724431038E0,4.785645287E-3,0.000000000E0
1.490367739E1,9.743574142E0,-9.571290575E-3,0.000000000E0
1.491336338E1,9.738788605E0,4.785645287E-3,1.435693540E-2
1.492304911E1,9.719645500E0,4.785645287E-3,9.571290575E-3
1.493273422E1,9.734002113E0,1.435693540E-2,4.785645287E-3
1.494241854E1,9.734002113E0,0.000000000E0,1.435693540E-2
1.495210161E1,9.734002113E0,9.571290575E-3,4.785645287E-3
1.496178677E1,9.724431038E0,4.785645287E-3,9.571290575E-3
1.497147250E1,9.738788605E0,9.571290575E-3,9.571290575E-3
1.498115698E1,9.719645500E0,0.000000000E0,4.785645287E-3
1.499084297E1,9.714859962E0,-4.785645287E-3,4.785645287E-3
1.500052823E1,9.724431038E0,-4.785645287E-3,-4.785645287E-3
1.501021260E1,9.734002113E0,-1.435693540E-2,4.785645287E-3
1.501989823E1,9.734002113E0,-4.785645287E-3,0.000000000E0
1.502958291E1,9.734002113E0,1.435693540E-2,1.435693540E-2
1.503926948E1,9.734002113E0,0.000000000E0,4.785645287E-3
1.504895588E1,9.738788605E0,0.000000000E0,-9.571290575E-3
1.505864218E1,9.729216576E0,-4.785645287E-3,0.000000000E0
1.506832765E1,9.724431038E0,0.000000000E0,0.000000000E0
1.507801411E1,9.724431038E0,0.000000000E0,4.785645287E-3
1.508769979E1,9.729216576E0,-9.571290575E-3,1.435693540E-2
1.509738562E1,9.729216576E0,-4.785645287E-3,4.785645287E-3
1.510707187E1,9.738788605E0,0.000000000E0,9.571290575E-3
1.511675870E1,9.724431038E0,-4.785645287E-3,-9.571290575E-3
1.512644521E1,9.748359680E0,0.000000000E0,4.785645287E-3
1.513612989E1,9.734002113E0,0.000000000E0,9.571290575E-3
1.514581536E1,9.724431038E0,0.000000000E0,0.000000000E0
1.515550010E1,9.729216576E0,0.000000000E0,1.435693540E-2
1.516518458E1,9.734002113E0,0.000000000E0,9.571290575E-3
1.517487104E1,9.729216576E0,4.785645287E-3,1.435693540E-2
1.518455666E1,9.724431038E0,4.785645287E-3,0.000000000E0
1.519424234E1,9.738788605E0,-1.914258115E-2,1.914258115E-2
1.520392838E1,9.743574142E0,1.914258115E-2,9.571290575E-3
1.521361338E1,9.724431038E0,9.571290575E-3,0.000000000E0
1.522329786E1,9.719645500E0,-4.785645287E-3,1.435693540E-2
1.523298422E1,9.719645500E0,-4.785645287E-3,4.785645287E-3
1.524266979E1,9.724431038E0,-4.785645287E-3,4.785645287E-3
1.525235541E1,9.734002113E0,9.571290575E-3,1.435693540E-2
1.526204140E1,9.738788605E0,-4.785645287E-3,0.000000000E0
1.527172531E1,9.734002113E0,9.571290575E-3,4.785645287E-3
1.528141182E1,9.738788605E0,0.000000000E0,9.571290575E-3
1.529109719E1,9.724431038E0,-1.914258115E-2,1.435693540E-2
1.530078187E1,9.738788605E0,0.000000000E0,4.785645287E-3
1.531046760E1,9.724431038E0,0.000000000E0,0.000000000E0
1.532015375E1,9.724431038E0,-4.785645287E-3,1.914258115E-2
1.532983958E1,9.729216576E0,-4.785645287E-3,4.785645287E-3
1.533952578E1,9.729216576E0,-9.571290575E-3,9.571290575E-3
1.534921130E1,9.734002113E0,4.785645287E-3,1.914258115E-2
1.535889552E1,9.734002113E0,-1.435693540E-2,9.571290575E-3
1.536858135E1,9.743574142E0,4.785645287E-3,0.000000000E0
1.537826875E1,9.743574142E0,4.785645287E-3,0.000000000E0
1.538795614E1,9.753145218E0,9.571290575E-3,9.571290575E-3
1.539764224E1,9.757930756E0,4.785645287E-3,0.000000000E0
1.540732729E1,9.729216576E0,-1.435693540E-2,4.785645287E-3
1.541701484E1,9.729216576E0,0.000000000E0,4.785645287E-3
1.542670005E1,9.724431038E0,9.571290575E-3,0.000000000E0
1.543638646E1,9.729216576E0,1.435693540E-2,4.785645287E-3
1.544607307E1,9.724431038E0,9.571290575E-3,1.435693540E-2
1.545575875E1,9.724431038E0,0.000000000E0,4.785645287E-3
1.546544594E1,9.719645500E0,9.571290575E-3,1.914258115E-2
1.547513094E1,9.738788605E0,-1.914258115E-2,1.435693540E-2
1.548481828E1,9.738788605E0,9.571290575E-3,4.785645287E-3
1.549450521E1,9.734002113E0,-9.571290575E-3,9.571290575E-3
1.550419208E1,9.724431038E0,4.785645287E-3,1.435693540E-2
1.551387885E1,9.734002113E0,0.000000000E0,0.000000000E0
1.552356573E1,9.724431038E0,1.435693540E-2,9.571290575E-3
1.553325078E1,9.724431038E0,-9.571290575E-3,1.435693540E-2
1.554293786E1,9.724431038E0,4.785645287E-3,1.914258115E-2
1.555262432E1,9.734002113E0,0.000000000E0,9.571290575E-3
1.556231031E1,9.729216576E0,1.435693540E-2,4.785645287E-3
1.557199646E1,9.738788605E0,1.914258115E-2,-4.785645287E-3
1.558168281E1,9.724431038E0,9.571290575E-3,1.914258115E-2
1.559136994E1,9.724431038E0,0.000000000E0,4.785645287E-3
1.560105515E1,9.743574142E0,9.571290575E-3,0.000000000E0
1.561073974E1,9.743574142E0,-4.785645287E-3,4.785645287E-3
1.562042422E1,9.734002113E0,0.000000000E0,4.785645287E-3
1.563010916E1,9.738788605E0,9.571290575E-3,-4.785645287E-3
1.563979469E1,9.738788605E0,-4.785645287E-3,0.000000000E0
1.564948052E1,9.734002113E0,-4.785645287E-3,4.785645287E-3
1.565916463E1,9.738788605E0,1.435693540E-2,9.571290575E-3
1.566885021E1,9.738788605E0,4.785645287E-3,4.785645287E-3
1.567853692E1,9.729216576E0,9.571290575E-3,9.571290575E-3
1.568822286E1,9.729216576E0,-9.571290575E-3,1.435693540E-2
1.569790989E1,9.734002113E0,4.785645287E-3,1.914258115E-2
1.570759692E1,9.748359680E0,0.000000000E0,9.571290575E-3
1.571728364E1,9.729216576E0,9.571290575E-3,1.914258115E-2
1.572697146E1,9.724431038E0,0.000000000E0,0.000000000E0
1.573665875E1,9.734002113E0,4.785645287E-3,9.571290575E-3
1.574634333E1,9.729216576E0,9.571290575E-3,1.435693540E-2
1.575602984E1,9.719645500E0,4.785645287E-3,9.571290575E-3
1.576571479E1,9.738788605E0,-4.785645287E-3,4.785645287E-3
1.577540073E1,9.734002113E0,-4.785645287E-3,9.571290575E-3
1.578508744E1,9.719645500E0,4.785645287E-3,1.914258115E-2
1.579477265E1,9.734002113E0,-4.785645287E-3,1.435693540E-2
1.580445885E1,9.738788605E0,0.000000000E0,0.000000000E0
1.581414541E1,9.724431038E0,4.785645287E-3,0.000000000E0
1.582383239E1,9.734002113E0,-9.571290575E-3,1.435693540E-2
1.583352000E1,9.738788605E0,1.435693540E-2,9.571290575E-3
1.584320734E1,9.734002113E0,1.435693540E-2,2.392822690E-2
1.585289411E1,9.719645500E0,4.785645287E-3,0.000000000E0
1.586258036E1,9.724431038E0,1.914258115E-2,9.571290575E-3
1.587226646E1,9.719645500E0,-9.571290575E-3,9.571290575E-3
1.588195323E1,9.724431038E0,-9.571290575E-3,4.785645287E-3
1.589163786E1,9.738788605E0,-4.785645287E-3,2.392822690E-2
1.590132427E1,9.729216576E0,-4.785645287E-3,-9.571290575E-3
1.591100963E1,9.729216576E0,4.785645287E-3,1.914258115E-2
1.592069552E1,9.734002113E0,9.571290575E-3,0.000000000E0
1.593038114E1,9.734002113E0,9.571290575E-3,4.785645287E-3
1.594006698E1,9.724431038E0,0.000000000E0,4.785645287E-3
1.594975255E1,9.714859962E0,-4.785645287E-3,1.435693540E-2
1.595943651E1,9.734002113E0,4.785645287E-3,2.392822690E-2
1.596912078E1,9.729216576E0,-4.785645287E-3,4.785645287E-3
1.597880661E1,9.753145218E0,-1.914258115E-2,1.914258115E-2
1.598849411E1,9.734002113E0,-4.785645287E-3,1.435693540E-2
1.599818052E1,9.734002113E0,4.785645287E-3,1.914258115E-2
1.600786536E1,9.738788605E0,9.571290575E-3,9.571290575E-3
1.601755104E1,9.719645500E0,4.785645287E-3,2.392822690E-2
1.602723599E1,9.738788605E0,4.785645287E-3,9.571290575E-3
1.603692177E1,9.738788605E0,-4.785645287E-3,9.571290575E-3
1.604660771E1,9.738788605E0,1.914258115E-2,9.571290575E-3
1.605629344E1,9.738788605E0,-9.571290575E-3,9.571290575E-3
1.606597922E1,9.743574142E0,0.000000000E0,0.000000000E0
1.607566286E1,9.743574142E0,-9.571290575E-3,9.571290575E-3
1.608534771E1,9.738788605E0,-9.571290575E-3,2.871387079E-2
1.609503271E1,9.729216576E0,0.000000000E0,2.392822690E-2
1.610471922E1,9.734002113E0,4.785645287E-3,9.571290575E-3
1.611440552E1,9.729216576E0,1.435693540E-2,2.871387079E-2
1.612409067E1,9.724431038E0,-9.571290575E-3,0.000000000E0
1.613377505E1,9.729216576E0,9.571290575E-3,1.914258115E-2
1.614346104E1,9.738788605E0,-9.571290575E-3,1.435693540E-2
1.615314708E1,9.724431038E0,4.785645287E-3,9.571290575E-3
1.616283297E1,9.743574142E0,9.571290575E-3,9.571290575E-3
1.617251922E1,9.729216576E0,4.785645287E-3,4.785645287E-3
1.618220562E1,9.743574142E0,-9.571290575E-3,9.571290575E-3
1.619189130E1,9.738788605E0,-1.435693540E-2,1.435693540E-2
1.620157771E1,9.729216576E0,0.000000000E0,1.435693540E-2
1.621126547E1,9.724431038E0,0.000000000E0,1.914258115E-2
1.622095192E1,9.719645500E0,-1.435693540E-2,1.435693540E-2
1.623063734E1,9.734002113E0,-1.435693540E-2,2.392822690E-2
1.624032354E1,9.729216576E0,-1.435693540E-2,1.914258115E-2
1.625000932E1,9.724431038E0,-4.785645287E-3,1.914258115E-2
1.625969620E1,9.729216576E0,9.571290575E-3,1.914258115E-2
1.626938135E1,9.729216576E0,1.435693540E-2,9.571290575E-3
1.627906729E1,9.729216576E0,0.000000000E0,9.571290575E-3
1.628875427E1,9.734002113E0,-9.571290575E-3,4.785645287E-3
1.629843896E1,9.738788605E0,1.435693540E-2,4.785645287E-3
1.630812609E1,9.729216576E0,4.785645287E-3,9.571290575E-3
1.631781213E1,9.734002113E0,4.785645287E-3,1.435693540E-2
1.632750005E1,9.724431038E0,9.571290575E-3,-4.785645287E-3
1.633718578E1,9.734002113E0,4.785645287E-3,0.000000000E0
1.634687135E1,9.738788605E0,4.785645287E-3,1.435693540E-2
1.635655739E1,9.734002113E0,4.785645287E-3,1.435693540E-2
1.636624286E1,9.738788605E0,0.000000000E0,4.785645287E-3
1.637592823E1,9.738788605E0,1.435693540E-2,1.914258115E-2
1.638561500E1,9.738788605E0,-4.785645287E-3,9.571290575E-3
1.639530041E1,9.734002113E0,1.914258115E-2,2.392822690E-2
1.640498599E1,9.738788605E0,9.571290575E-3,2.392822690E-2
1.641467234E1,9.734002113E0,0.000000000E0,1.435693540E-2
1.642435942E1,9.719645500E0,-9.571290575E-3,1.914258115E-2
1.643404427E1,9.729216576E0,-4.785645287E-3,1.435693540E-2
1.644372906E1,9.719645500E0,-1.435693540E-2,4.785645287E-3
1.645341406E1,9.738788605E0,-4.785645287E-3,4.785645287E-3
1.646309797E1,9.719645500E0,0.000000000E0,4.785645287E-3
1.647278229E1,9.738788605E0,4.785645287E-3,4.785645287E-3
1.648246567E1,9.734002113E0,-9.571290575E-3,9.571290575E-3
1.649214922E1,9.729216576E0,4.785645287E-3,1.914258115E-2
1.650183359E1,9.734002113E0,1.435693540E-2,1.435693540E-2
1.651151817E1,9.724431038E0,-4.785645287E-3,1.914258115E-2
1.652120271E1,9.734002113E0,0.000000000E0,9.571290575E-3
1.653088666E1,9.753145218E0,-1.435693540E-2,9.571290575E-3
1.654057146E1,9.748359680E0,1.914258115E-2,1.435693540E-2
1.655025703E1,9.724431038E0,9.571290575E-3,1.435693540E-2
1.655994187E1,9.738788605E0,-1.435693540E-2,-4.785645287E-3
1.656962771E1,9.738788605E0,-9.571290575E-3,1.435693540E-2
1.657931489E1,9.734002113E0,0.000000000E0,1.914258115E-2
1.658899854E1,9.734002113E0,0.000000000E0,1.435693540E-2
1.659868515E1,9.719645500E0,4.785645287E-3,1.435693540E-2
1.660836953E1,9.734002113E0,9.571290575E-3,1.914258115E-2
1.661805218E1,9.724431038E0,9.571290575E-3,9.571290575E-3
1.662773646E1,9.729216576E0,1.435693540E-2,1.914258115E-2
1.663742109E1,9.743574142E0,0.000000000E0,1.914258115E-2
1.664710437E1,9.729216576E0,0.000000000E0,1.435693540E-2
1.665678687E1,9.729216576E0,-1.435693540E-2,1.914258115E-2
1.666646994E1,9.734002113E0,4.785645287E-3,1.435693540E-2
1.667615312E1,9.729216576E0,0.000000000E0,9.571290575E-3
1.668583739E1,9.719645500E0,-4.785645287E-3,1.435693540E-2
1.669552265E1,9.734002113E0,-4.785645287E-3,4.785645287E-3
1.670520729E1,9.724431038E0,0.000000000E0,9.571290575E-3
1.671489088E1,9.738788605E0,1.435693540E-2,4.785645287E-3
1.672457479E1,9.729216576E0,-4.785645287E-3,1.435693540E-2
1.673425958E1,9.738788605E0,0.000000000E0,1.435693540E-2
1.674394422E1,9.738788605E0,0.000000000E0,1.435693540E-2
1.675362817E1,9.748359680E0,4.785645287E-3,1.435693540E-2
1.676331229E1,9.738788605E0,4.785645287E-3,9.571290575E-3
1.677299588E1,9.734002113E0,0.000000000E0,9.571290575E-3
1.678268057E1,9.729216576E0,0.000000000E0,-4.785645287E-3
1.679236448E1,9.734002113E0,-4.785645287E-3,2.392822690E-2
1.680204854E1,9.738788605E0,-1.435693540E-2,1.914258115E-2
1.681173406E1,9.748359680E0,0.000000000E0,4.785645287E-3
1.682141974E1,9.738788605E0,-9.571290575E-3,0.000000000E0
1.683110463E1,9.738788605E0,-4.785645287E-3,9.571290575E-3
1.684078802E1,9.738788605E0,0.000000000E0,1.914258115E-2
1.685047286E1,9.738788605E0,-1.435693540E-2,1.435693540E-2
1.686015719E1,9.734002113E0,4.785645287E-3,1.435693540E-2
1.686984187E1,9.738788605E0,9.571290575E-3,4.785645287E-3
1.687952744E1,9.738788605E0,-1.914258115E-2,1.435693540E-2
1.688921067E1,9.724431038E0,0.000000000E0,1.914258115E-2
1.689889521E1,9.738788605E0,4.785645287E-3,1.914258115E-2
1.690858114E1,9.719645500E0,-9.571290575E-3,1.914258115E-2
1.691826614E1,9.738788605E0,0.000000000E0,1.435693540E-2
1.692795036E1,9.734002113E0,1.435693540E-2,0.000000000E0
1.693763364E1,9.719645500E0,-9.571290575E-3,1.435693540E-2
1.694731838E1,9.729216576E0,1.435693540E-2,4.785645287E-3
1.695700156E1,9.734002113E0,1.914258115E-2,4.785645287E-3
1.696668458E1,9.748359680E0,1.435693540E-2,4.785645287E-3
1.697636708E1,9.714859962E0,-1.435693540E-2,1.435693540E-2
1.698605192E1,9.729216576E0,4.785645287E-3,4.785645287E-3
1.699573609E1,9.734002113E0,0.000000000E0,1.914258115E-2
1.700542005E1,9.719645500E0,-4.785645287E-3,1.914258115E-2
1.701510422E1,9.724431038E0,-9.571290575E-3,1.435693540E-2
1.702478963E1,9.734002113E0,0.000000000E0,2.392822690E-2
1.703447344E1,9.724431038E0,0.000000000E0,9.571290575E-3
1.704415854E1,9.724431038E0,-9.571290575E-3,1.435693540E-2
1.705384317E1,9.738788605E0,4.785645287E-3,4.785645287E-3
1.706352609E1,9.729216576E0,-4.785645287E-3,9.571290575E-3
1.707321104E1,9.719645500E0,-1.435693540E-2,1.435693540E-2
1.708289640E1,9.743574142E0,-4.785645287E-3,4.785645287E-3
1.709258041E1,9.719645500E0,-4.785645287E-3,9.571290575E-3
1.710226510E1,9.724431038E0,4.785645287E-3,0.000000000E0
1.711195010E1,9.734002113E0,-4.785645287E-3,4.785645287E-3
1.712163437E1,9.738788605E0,0.000000000E0,4.785645287E-3
1.713131896E1,9.724431038E0,0.000000000E0,0.000000000E0
1.714100463E1,9.738788605E0,-9.571290575E-3,2.392822690E-2
1.715069036E1,9.724431038E0,0.000000000E0,9.571290575E-3
1.716037625E1,9.714859962E0,-1.914258115E-2,9.571290575E-3
1.717006182E1,9.738788605E0,-1.914258115E-2,1.435693540E-2
1.717974922E1,9.738788605E0,4.785645287E-3,9.571290575E-3
1.718943682E1,9.724431038E0,-9.571290575E-3,9.571290575E-3
1.719912271E1,9.719645500E0,-9.571290575E-3,1.435693540E-2
1.720880844E1,9.734002113E0,-4.785645287E-3,1.914258115E-2
1.721849547E1,9.743574142E0,9.571290575E-3,0.000000000E0
1.722818099E1,9.719645500E0,0.000000000E0,9.571290575E-3
1.723786661E1,9.724431038E0,-1.435693540E-2,4.785645287E-3
1.724755224E1,9.724431038E0,-1.435693540E-2,2.871387079E-2
1.725723833E1,9.743574142E0,-9.571290575E-3,4.785645287E-3
1.726692333E1,9.753145218E0,-4.785645287E-3,4.785645287E-3
1.727661005E1,9.738788605E0,-1.914258115E-2,0.000000000E0
1.728629666E1,9.729216576E0,-9.571290575E-3,0.000000000E0
1.729598317E1,9.734002113E0,-9.571290575E-3,0.000000000E0
1.730566844E1,9.724431038E0,9.571290575E-3,0.000000000E0
1.731535370E1,9.738788605E0,-4.785645287E-3,4.785645287E-3
1.732503922E1,9.714859962E0,0.000000000E0,4.785645287E-3
1.733472453E1,9.724431038E0,-1.435693540E-2,0.000000000E0
1.734440911E1,9.729216576E0,9.571290575E-3,4.785645287E-3
1.735409515E1,9.738788605E0,9.571290575E-3,0.000000000E0
1.736378109E1,9.734002113E0,-9.571290575E-3,1.435693540E-2
1.737346672E1,9.719645500E0,0.000000000E0,9.571290575E-3
1.738315213E1,9.729216576E0,0.000000000E0,4.785645287E-3
1.739283692E1,9.753145218E0,4.785645287E-3,1.435693540E-2
1.740252192E1,9.738788605E0,0.000000000E0,1.914258115E-2
1.741220687E1,9.710074425E0,4.785645287E-3,0.000000000E0
1.742189177E1,9.729216576E0,0.000000000E0,1.435693540E-2
1.743157646E1,9.734002113E0,4.785645287E-3,0.000000000E0
1.744126354E1,9.734002113E0,-4.785645287E-3,4.785645287E-3
1.745094870E1,9.724431038E0,-1.914258115E-2,1.435693540E-2
1.746063385E1,9.738788605E0,-9.571290575E-3,-4.785645287E-3
1.747031849E1,9.724431038E0,4.785645287E-3,0.000000000E0
1.748000401E1,9.743574142E0,9.571290575E-3,4.785645287E-3
1.748968932E1,9.724431038E0,0.000000000E0,4.785645287E-3
1.749937505E1,9.724431038E0,9.571290575E-3,1.435693540E-2
1.750906114E1,9.734002113E0,-4.785645287E-3,-4.785645287E-3
1.751874729E1,9.719645500E0,-4.785645287E-3,1.914258115E-2
1.752843208E1,9.734002113E0,4.785645287E-3,1.435693540E-2
1.753811703E1,9.724431038E0,0.000000000E0,1.435693540E-2
1.754780166E1,9.729216576E0,-4.785645287E-3,9.571290575E-3
1.755748781E1,9.743574142E0,0.000000000E0,1.435693540E-2
1.756717286E1,9.729216576E0,-4.785645287E-3,4.785645287E-3
1.757685875E1,9.734002113E0,-4.785645287E-3,1.914258115E-2
1.758654489E1,9.724431038E0,4.785645287E-3,4.785645287E-3
1.759623036E1,9.743574142E0,1.435693540E-2,9.571290575E-3
1.760591724E1,9.729216576E0,4.785645287E-3,1.914258115E-2
1.761560364E1,9.748359680E0,1.435693540E-2,1.914258115E-2
1.762528870E1,9.719645500E0,-9.571290575E-3,-9.571290575E-3
1.763497458E1,9.724431038E0,-4.785645287E-3,0.000000000E0
1.764466083E1,9.738788605E0,4.785645287E-3,0.000000000E0
1.765434672E1,9.729216576E0,0.000000000E0,-4.785645287E-3
1.766403302E1,9.738788605E0,-9.571290575E-3,9.571290575E-3
1.767371906E1,9.734002113E0,2.392822690E-2,0.000000000E0
1.768340614E1,9.738788605E0,1.435693540E-2,9.571290575E-3
1.769309208E1,9.734002113E0,4.785645287E-3,1.914258115E-2
1.770277745E1,9.729216576E0,-4.785645287E-3,0.000000000E0
1.771246484E1,9.729216576E0,4.785645287E-3,9.571290575E-3
1.772215120E1,9.724431038E0,9.571290575E-3,0.000000000E0
1.773183677E1,9.734002113E0,4.785645287E-3,-9.571290575E-3
1.774152047E1,9.734002113E0,4.785645287E-3,1.914258115E-2
1.775120620E1,9.743574142E0,4.785645287E-3,9.571290575E-3
1.776089073E1,9.738788605E0,0.000000000E0,0.000000000E0
1.777057515E1,9.729216576E0,-9.571290575E-3,0.000000000E0
1.778026010E1,9.729216576E0,-4.785645287E-3,1.435693540E-2
1.778994672E1,9.738788605E0,0.000000000E0,4.785645287E-3
1.779963198E1,9.748359680E0,0.000000000E0,9.571290575E-3
1.780931698E1,9.743574142E0,-1.914258115E-2,0.000000000E0
1.781900328E1,9.719645500E0,-1.914258115E-2,9.571290575E-3
1.782868765E1,9.719645500E0,-9.571290575E-3,4.785645287E-3
1.783837244E1,9.729216576E0,9.571290575E-3,-9.571290575E-3
1.784805791E1,9.729216576E0,0.000000000E0,-4.785645287E-3
1.785774531E1,9.738788605E0,9.571290575E-3,4.785645287E-3
1.786743245E1,9.714859962E0,-1.435693540E-2,1.914258115E-2
1.787711880E1,9.729216576E0,4.785645287E-3,9.571290575E-3
1.788680359E1,9.729216576E0,-9.571290575E-3,4.785645287E-3
1.789648885E1,9.738788605E0,4.785645287E-3,-9.571290575E-3
1.790617583E1,9.729216576E0,-4.785645287E-3,1.435693540E-2
1.791586255E1,9.734002113E0,-4.785645287E-3,1.914258115E-2
1.792554838E1,9.734002113E0,4.785645287E-3,4.785645287E-3
1.793523474E1,9.743574142E0,4.785645287E-3,4.785645287E-3
1.794492015E1,9.734002113E0,-4.785645287E-3,-9.571290575E-3
1.795460640E1,9.710074425E0,4.785645287E-3,0.000000000E0
1.796429286E1,9.719645500E0,9.571290575E-3,9.571290575E-3
1.797397880E1,9.729216576E0,-4.785645287E-3,9.571290575E-3
1.798366448E1,9.734002113E0,0.000000000E0,1.435693540E-2
1.799334916E1,9.738788605E0,-4.785645287E-3,9.571290575E-3
1.800303396E1,9.738788605E0,-4.785645287E-3,9.571290575E-3
1.801271812E1,9.738788605E0,9.571290575E-3,4.785645287E-3
1.802240218E1,9.724431038E0,-4.785645287E-3,-4.785645287E-3
1.803208864E1,9.762716293E0,-9.571290575E-3,4.785645287E-3
1.804177406E1,9.734002113E0,1.914258115E-2,1.914258115E-2
1.805146036E1,9.729216576E0,-4.785645287E-3,4.785645287E-3
1.806114640E1,9.714859962E0,4.785645287E-3,1.435693540E-2
1.807083198E1,9.719645500E0,-9.571290575E-3,9.571290575E-3
1.808051630E1,9.738788605E0,4.785645287E-3,4.785645287E-3
1.809020187E1,9.734002113E0,4.785645287E-3,0.000000000E0
1.809988609E1,9.724431038E0,4.785645287E-3,-4.785645287E-3
1.810957265E1,9.724431038E0,4.785645287E-3,4.785645287E-3
1.811925765E1,9.729216576E0,-4.785645287E-3,2.392822690E-2
1.812894265E1,9.729216576E0,0.000000000E0,9.571290575E-3
1.813862698E1,9.734002113E0,-4.785645287E-3,4.785645287E-3
1.814831239E1,9.729216576E0,4.785645287E-3,9.571290575E-3
1.815799828E1,9.734002113E0,4.785645287E-3,-4.785645287E-3
1.816768359E1,9.738788605E0,4.785645287E-3,0.000000000E0
1.817736901E1,9.738788605E0,4.785645287E-3,0.000000000E0
1.818705401E1,9.729216576E0,-1.435693540E-2,-4.785645287E-3
1.819673875E1,9.734002113E0,4.785645287E-3,4.785645287E-3
1.820642375E1,9.729216576E0,0.000000000E0,-4.785645287E-3
1.821610864E1,9.719645500E0,4.785645287E-3,-4.785645287E-3
1.822579370E1,9.734002113E0,-4.785645287E-3,1.914258115E-2
1.823547870E1,9.724431038E0,-1.435693540E-2,1.435693540E-2
1.824516255E1,9.734002113E0,-9.571290575E-3,9.571290575E-3
1.825484646E1,9.729216576E0,1.435693540E-2,-4.785645287E-3
1.826453192E1,9.729216576E0,0.000000000E0,-1.435693540E-2
1.827421687E1,9.729216576E0,4.785645287E-3,9.571290575E-3
1.828390198E1,9.743574142E0,-9.571290575E-3,4.785645287E-3
1.829358599E1,9.724431038E0,9.571290575E-3,0.000000000E0
1.830327140E1,9.734002113E0,-9.571290575E-3,-9.571290575E-3
1.831295739E1,9.738788605E0,-9.571290575E-3,-9.571290575E-3
1.832264375E1,9.734002113E0,0.000000000E0,9.571290575E-3
1.833232974E1,9.729216576E0,9.571290575E-3,-9.571290575E-3
1.834201640E1,9.734002113E0,-9.571290575E-3,4.785645287E-3
1.835170239E1,9.734002113E0,4.785645287E-3,4.785645287E-3
1.836138875E1,9.719645500E0,0.000000000E0,4.785645287E-3
1.837107411E1,9.743574142E0,-1.435693540E-2,-4.785645287E-3
1.838075875E1,9.729216576E0,0.000000000E0,0.000000000E0
1.839044396E1,9.719645500E0,9.571290575E-3,1.914258115E-2
1.840012922E1,9.729216576E0,4.785645287E-3,4.785645287E-3
1.840981484E1,9.734002113E0,0.000000000E0,0.000000000E0
1.841950015E1,9.734002113E0,-9.571290575E-3,0.000000000E0
1.842918494E1,9.734002113E0,4.785645287E-3,4.785645287E-3
1.843886989E1,9.719645500E0,-4.785645287E-3,0.000000000E0
1.844855557E1,9.729216576E0,-9.571290575E-3,0.000000000E0
1.845824140E1,9.734002113E0,0.000000000E0,0.000000000E0
1.846792729E1,9.729216576E0,9.571290575E-3,-4.785645287E-3
1.847761297E1,9.738788605E0,-4.785645287E-3,9.571290575E-3
1.848729927E1,9.724431038E0,0.000000000E0,1.914258115E-2
1.849698390E1,9.710074425E0,-1.914258115E-2,9.571290575E-3
1.850667021E1,9.724431038E0,0.000000000E0,0.000000000E0
1.851635620E1,9.734002113E0,9.571290575E-3,1.435693540E-2
1.852604302E1,9.734002113E0,9.571290575E-3,9.571290575E-3
1.853572953E1,9.738788605E0,4.785645287E-3,1.435693540E-2
1.854541541E1,9.724431038E0,-4.785645287E-3,1.435693540E-2
1.855510047E1,9.719645500E0,-9.571290575E-3,0.000000000E0
1.856478609E1,9.729216576E0,9.571290575E-3,9.571290575E-3
1.857447067E1,9.748359680E0,0.000000000E0,4.785645287E-3
1.858415661E1,9.748359680E0,-1.435693540E-2,4.785645287E-3
1.859384427E1,9.734002113E0,4.785645287E-3,-4.785645287E-3
1.860352974E1,9.724431038E0,1.435693540E-2,0.000000000E0
1.861321489E1,9.729216576E0,0.000000000E0,0.000000000E0
1.862289932E1,9.738788605E0,9.571290575E-3,4.785645287E-3
1.863258479E1,9.729216576E0,-9.571290575E-3,0.000000000E0
1.864227036E1,9.729216576E0,4.785645287E-3,0.000000000E0
1.865195437E1,9.738788605E0,-1.435693540E-2,2.392822690E-2
1.866164026E1,9.738788605E0,0.000000000E0,4.785645287E-3
1.867132547E1,9.734002113E0,-4.785645287E-3,9.571290575E-3
1.868100974E1,9.738788605E0,0.000000000E0,-1.435693540E-2
1.869069432E1,9.738788605E0,-9.571290575E-3,1.435693540E-2
1.870037807E1,9.738788605E0,9.571290575E-3,0.000000000E0
1.871006271E1,9.724431038E0,1.435693540E-2,-9.571290575E-3
1.871974974E1,9.734002113E0,4.785645287E-3,0.000000000E0
1.872943401E1,9.729216576E0,-9.571290575E-3,1.435693540E-2
1.873911833E1,9.719645500E0,-9.571290575E-3,4.785645287E-3
1.874880375E1,9.719645500E0,9.571290575E-3,0.000000000E0
1.875849047E1,9.729216576E0,0.000000000E0,4.785645287E-3
1.876817708E1,9.738788605E0,-1.435693540E-2,0.000000000E0
1.877786255E1,9.714859962E0,1.435693540E-2,-4.785645287E-3
1.878754817E1,9.714859962E0,0.000000000E0,4.785645287E-3
1.879723328E1,9.738788605E0,0.000000000E0,4.785645287E-3
1.880691854E1,9.724431038E0,-1.435693540E-2,0.000000000E0
1.881660375E1,9.734002113E0,4.785645287E-3,4.785645287E-3
1.882628916E1,9.738788605E0,-4.785645287E-3,-4.785645287E-3
1.883597489E1,9.724431038E0,0.000000000E0,4.785645287E-3
1.884566114E1,9.738788605E0,1.435693540E-2,1.914258115E-2
1.885534567E1,9.729216576E0,4.785645287E-3,4.785645287E-3
1.886503031E1,9.734002113E0,4.785645287E-3,4.785645287E-3
1.887471557E1,9.719645500E0,9.571290575E-3,0.000000000E0
1.888439942E1,9.724431038E0,0.000000000E0,9.571290575E-3
1.889408359E1,9.724431038E0,4.785645287E-3,0.000000000E0
1.890376802E1,9.724431038E0,4.785645287E-3,0.000000000E0
1.891345187E1,9.729216576E0,-1.435693540E-2,-9.571290575E-3
1.892313906E1,9.738788605E0,-4.785645287E-3,4.785645287E-3
1.893282364E1,9.734002113E0,0.000000000E0,-4.785645287E-3
1.894250755E1,9.734002113E0,-9.571290575E-3,0.000000000E0
1.895219328E1,9.734002113E0,9.571290575E-3,0.000000000E0
1.896187932E1,9.738788605E0,0.000000000E0,9.571290575E-3
1.897156484E1,9.743574142E0,-1.435693540E-2,4.785645287E-3
1.898125052E1,9.738788605E0,-4.785645287E-3,9.571290575E-3
1.899093646E1,9.734002113E0,-4.785645287E-3,4.785645287E-3
1.900062177E1,9.724431038E0,4.785645287E-3,-9.571290575E-3
1.901030760E1,9.734002113E0,4.785645287E-3,-4.785645287E-3
1.901999271E1,9.719645500E0,-4.785645287E-3,1.435693540E-2
1.902967698E1,9.738788605E0,0.000000000E0,0.000000000E0
1.903936182E1,9.734002113E0,-4.785645287E-3,-4.785645287E-3
1.904904755E1,9.719645500E0,0.000000000E0,4.785645287E-3
1.905873187E1,9.734002113E0,0.000000000E0,1.435693540E-2
1.906841708E1,9.734002113E0,-4.785645287E-3,-4.785645287E-3
1.907810140E1,9.729216576E0,0.000000000E0,4.785645287E-3
1.908778692E1,9.743574142E0,9.571290575E-3,-4.785645287E-3
1.909747312E1,9.734002113E0,4.785645287E-3,0.000000000E0
1.910715849E1,9.729216576E0,4.785645287E-3,4.785645287E-3
1.911684276E1,9.729216576E0,0.000000000E0,4.785645287E-3
1.912652760E1,9.734002113E0,0.000000000E0,4.785645287E-3
1.913621291E1,9.738788605E0,4.785645287E-3,4.785645287E-3
1.914589807E1,9.729216576E0,-4.785645287E-3,1.435693540E-2
1.915558422E1,9.753145218E0,1.435693540E-2,0.000000000E0
1.916526948E1,9.714859962E0,-4.785645287E-3,4.785645287E-3
1.917495432E1,9.729216576E0,1.435693540E-2,0.000000000E0
1.918463937E1,9.743574142E0,9.571290575E-3,4.785645287E-3
1.919432401E1,9.710074425E0,9.571290575E-3,-4.785645287E-3
1.920400916E1,9.743574142E0,9.571290575E-3,4.785645287E-3
1.921369406E1,9.738788605E0,-4.785645287E-3,1.435693540E-2
1.922338015E1,9.729216576E0,-4.785645287E-3,9.571290575E-3
1.923306552E1,9.729216576E0,-4.785645287E-3,4.785645287E-3
1.924275109E1,9.719645500E0,0.000000000E0,4.785645287E-3
1.925243588E1,9.729216576E0,0.000000000E0,0.000000000E0
1.926212140E1,9.729216576E0,-1.435693540E-2,-4.785645287E-3
1.927180718E1,9.738788605E0,-4.785645287E-3,4.785645287E-3
1.928149328E1,9.719645500E0,4.785645287E-3,9.571290575E-3
1.929117937E1,9.734002113E0,-4.785645287E-3,9.571290575E-3
1.930086359E1,9.724431038E0,0.000000000E0,-4.785645287E-3
1.931054854E1,9.719645500E0,4.785645287E-3,4.785645287E-3
1.932023250E1,9.748359680E0,-1.435693540E-2,0.000000000E0
1.932991687E1,9.734002113E0,0.000000000E0,9.571290575E-3
1.933960244E1,9.734002113E0,-9.571290575E-3,4.785645287E-3
1.934928724E1,9.724431038E0,-1.435693540E-2,4.785645287E-3
1.935897234E1,9.729216576E0,1.435693540E-2,9.571290575E-3
1.936865791E1,9.729216576E0,-4.785645287E-3,-4.785645287E-3
1.937834328E1,9.724431038E0,4.785645287E-3,0.000000000E0
1.938803005E1,9.729216576E0,4.785645287E-3,4.785645287E-3
1.939771646E1,9.705288887E0,0.000000000E0,1.435693540E-2
1.940740156E1,9.719645500E0,-4.785645287E-3,0.000000000E0
1.941708760E1,9.738788605E0,-4.785645287E-3,4.785645287E-3
1.942677244E1,9.724431038E0,-9.571290575E-3,-4.785645287E-3
1.943645937E1,9.738788605E0,0.000000000E0,4.785645287E-3
1.944614494E1,9.729216576E0,-4.785645287E-3,-1.435693540E-2
1.945582870E1,9.729216576E0,9.571290575E-3,-4.785645287E-3
1.946551437E1,9.734002113E0,-9.571290575E-3,0.000000000E0
1.947520125E1,9.729216576E0,-4.785645287E-3,-4.785645287E-3
1.948488729E1,9.719645500E0,9.571290575E-3,-9.571290575E-3
1.949457375E1,9.729216576E0,1.435693540E-2,4.785645287E-3
1.950426031E1,9.734002113E0,0.000000000E0,-4.785645287E-3
1.951394484E1,9.724431038E0,0.000000000E0,0.000000000E0
1.952362948E1,9.734002113E0,1.435693540E-2,9.571290575E-3
1.953331484E1,9.734002113E0,-4.785645287E-3,1.435693540E-2
1.954299995E1,9.729216576E0,9.571290575E-3,0.000000000E0
1.955268573E1,9.724431038E0,-9.571290575E-3,0.000000000E0
1.956237224E1,9.719645500E0,0.000000000E0,-1.435693540E-2
1.957205937E1,9.734002113E0,4.785645287E-3,4.785645287E-3
1.958174594E1,9.734002113E0,0.000000000E0,-1.435693540E-2
1.959143114E1,9.734002113E0,2.392822690E-2,-4.785645287E-3
1.960111729E1,9.738788605E0,4.785645287E-3,4.785645287E-3
1.961080281E1,9.734002113E0,-4.785645287E-3,0.000000000E0
1.962048896E1,9.743574142E0,9.571290575E-3,-4.785645287E-3
1.963017432E1,9.738788605E0,4.785645287E-3,-9.571290575E-3
1.963986109E1,9.724431038E0,1.435693540E-2,-9.571290575E-3
1.964954828E1,9.724431038E0,-4.785645287E-3,0.000000000E0
1.965923396E1,9.724431038E0,-9.571290575E-3,4.785645287E-3
1.966891823E1,9.729216576E0,9.571290575E-3,-4.785645287E-3
1.967860396E1,9.724431038E0,4.785645287E-3,9.571290575E-3
1.968828911E1,9.743574142E0,0.000000000E0,9.571290575E-3
1.969797536E1,9.734002113E0,9.571290575E-3,0.000000000E0
1.970766099E1,9.724431038E0,0.000000000E0,0.000000000E0
1.971734656E1,9.738788605E0,1.914258115E-2,9.571290575E-3
1.972703187E1,9.734002113E0,0.000000000E0,0.000000000E0
1.973671791E1,9.729216576E0,1.914258115E-2,0.000000000E0
1.974640213E1,9.714859962E0,4.785645287E-3,-4.785645287E-3
1.975608760E1,9.738788605E0,0.000000000E0,-4.785645287E-3
1.976577312E1,9.738788605E0,1.914258115E-2,-4.785645287E-3
1.977545677E1,9.734002113E0,0.000000000E0,0.000000000E0
1.978514359E1,9.729216576E0,-4.785645287E-3,4.785645287E-3
1.979482890E1,9.729216576E0,0.000000000E0,-9.571290575E-3
1.980451427E1,9.719645500E0,9.571290575E-3,4.785645287E-3
1.981420104E1,9.738788605E0,-4.785645287E-3,0.000000000E0
1.982388724E1,9.729216576E0,9.571290575E-3,4.785645287E-3
1.983357218E1,9.719645500E0,0.000000000E0,4.785645287E-3
1.984325833E1,9.724431038E0,0.000000000E0,-4.785645287E-3
1.985294349E1,9.738788605E0,9.571290575E-3,1.435693540E-2
1.986262880E1,9.734002113E0,9.571290575E-3,-9.571290575E-3
1.987231416E1,9.719645500E0,4.785645287E-3,0.000000000E0
1.988200083E1,9.734002113E0,-9.571290575E-3,4.785645287E-3
1.989168458E1,9.734002113E0,0.000000000E0,9.571290575E-3
1.990137021E1,9.743574142E0,4.785645287E-3,4.785645287E-3
1.991105489E1,9.738788605E0,-4.785645287E-3,9.571290575E-3
1.992073885E1,9.734002113E0,0.000000000E0,4.785645287E-3
1.993042276E1,9.729216576E0,1.435693540E-2,1.435693540E-2
1.994010651E1,9.734002113E0,-4.785645287E-3,0.000000000E0
1.994979140E1,9.724431038E0,1.914258115E-2,-4.785645287E-3
1.995947588E1,9.724431038E0,1.435693540E-2,-4.785645287E-3
1.996915968E1,9.719645500E0,0.000000000E0,9.571290575E-3
1.997884573E1,9.719645500E0,0.000000000E0,0.000000000E0
1.998853120E1,9.719645500E0,0.000000000E0,4.785645287E-3
1.999821703E1,9.729216576E0,1.435693540E-2,1.914258115E-2
2.000790239E1,9.734002113E0,0.000000000E0,9.571290575E-3
2.001758692E1,9.738788605E0,1.914258115E-2,0.000000000E0
2.002727073E1,9.729216576E0,-9.571290575E-3,-4.785645287E-3
2.003695599E1,9.729216576E0,-1.435693540E-2,-4.785645287E-3
