"Time (s)","Acceleration x (m/s^2)","Acceleration y (m/s^2)","Acceleration z (m/s^2)"
4.001828600E-2,1.473978758E0,-1.818545163E-1,9.805787086E0
4.989906700E-2,1.464407444E0,-1.818545163E-1,9.853643417E0
5.977839000E-2,1.459621787E0,-1.818545163E-1,9.805787086E0
6.965885900E-2,1.387837172E0,-1.004985496E-1,9.767501831E0
7.953885900E-2,1.272981644E0,8.614161611E-2,9.748359680E0
8.941891100E-2,1.158126116E0,2.632105052E-1,9.714859962E0
9.929823400E-2,1.124626637E0,3.302095234E-1,9.743574142E0
1.091770880E-1,1.177268744E0,2.727817893E-1,9.757930756E0
1.190574000E-1,1.368694544E0,-1.435693540E-2,9.729216576E0
1.289367230E-1,1.344766378E0,9.571290575E-3,9.662218094E0
1.388158380E-1,1.344766378E0,1.435693540E-2,9.753145218E0
1.486953690E-1,1.335195065E0,0.000000000E0,9.896714211E0
1.585740150E-1,1.349551916E0,9.571290575E-3,9.863214493E0
1.684517750E-1,1.349551916E0,1.435693540E-2,9.714859962E0
1.783310980E-1,1.354337573E0,0.000000000E0,9.657432556E0
1.882097440E-1,1.349551916E0,1.435693540E-2,9.724431038E0
1.980880250E-1,1.320838094E0,4.785645287E-3,9.786644936E0
2.079675560E-1,1.335195065E0,1.435693540E-2,9.734002113E0
2.178461500E-1,1.344766378E0,1.435693540E-2,9.652647018E0
2.277257340E-1,1.339980721E0,-2.871387079E-2,9.667003632E0
2.376045880E-1,1.330409408E0,9.571290575E-3,9.872786522E0
2.474834940E-1,1.335195065E0,9.571290575E-3,9.978070259E0
2.571800560E-1,1.335195065E0,1.914258115E-2,9.844072342E0
2.668647960E-1,1.344766378E0,9.571290575E-3,9.657432556E0
2.765506810E-1,1.339980721E0,4.785645287E-3,9.690931320E0
2.862361500E-1,1.339980721E0,4.785645287E-3,9.762716293E0
2.959208900E-1,1.330409408E0,0.000000000E0,9.767501831E0
3.056071400E-1,1.320838094E0,-9.571290575E-3,9.700503349E0
3.152917230E-1,1.325623751E0,2.392822690E-2,9.690931320E0
3.249779210E-1,1.320838094E0,9.571290575E-3,9.719645500E0
3.346635980E-1,1.339980721E0,-1.435693540E-2,9.767501831E0
3.443494840E-1,1.320838094E0,-1.435693540E-2,9.786644936E0
3.540343270E-1,1.316052437E0,-9.571290575E-3,9.863214493E0
3.637195880E-1,1.325623751E0,-4.785645287E-3,9.915857315E0
3.734061500E-1,1.339980721E0,-1.435693540E-2,9.810572624E0
3.830915150E-1,1.368694544E0,-5.742774159E-2,9.695717812E0
3.927766190E-1,1.354337573E0,-5.742774159E-2,9.667003632E0
4.024638060E-1,1.311266780E0,2.871387079E-2,9.714859962E0
4.121491190E-1,1.263410330E0,1.004985496E-1,9.743574142E0
4.218346400E-1,1.325623751E0,-4.785645287E-3,9.738788605E0
4.315216190E-1,1.316052437E0,4.785645287E-3,9.714859962E0
4.412070360E-1,1.311266780E0,1.435693540E-2,9.690931320E0
4.508933380E-1,1.320838094E0,4.785645287E-3,9.633503914E0
4.605795360E-1,1.316052437E0,4.785645287E-3,9.595218658E0
4.702656810E-1,1.320838094E0,-4.785645381E-2,9.896714211E0
4.799517750E-1,1.301695466E0,9.571290575E-3,1.006421185E1
4.896366190E-1,1.316052437E0,0.000000000E0,9.820143700E0
4.993222440E-1,1.325623751E0,4.785645287E-3,9.585647583E0
5.090072960E-1,1.301695466E0,4.785645287E-3,9.753145218E0
5.186928170E-1,1.301695466E0,-9.571290575E-3,9.920642853E0
5.283769310E-1,1.316052437E0,0.000000000E0,9.801001549E0
5.380603690E-1,1.301695466E0,0.000000000E0,9.681360245E0
5.477461500E-1,1.296909928E0,4.785645287E-3,9.738788605E0
5.574314630E-1,1.296909928E0,1.435693540E-2,9.796216011E0
5.671171400E-1,1.244267821E0,8.135596663E-2,9.786644936E0
5.768025040E-1,1.148554921E0,2.488535494E-1,9.695717812E0
5.864874000E-1,1.091127157E0,3.158525825E-1,9.638289452E0
5.961726090E-1,1.167697430E0,2.297109663E-1,9.518648148E0
6.058590670E-1,1.210768223E0,3.158525825E-1,9.150154114E0
6.155449000E-1,1.397408366E0,1.292124242E-1,1.020299530E1
6.252316190E-1,1.488335729E0,-2.344966233E-1,1.081555843E1
6.349178690E-1,1.445264935E0,-4.929214716E-1,1.024606609E1
6.446038060E-1,1.368694544E0,-4.881358147E-1,9.710074425E0
6.542897960E-1,1.392622828E0,-2.105683982E-1,9.781859398E0
6.639760460E-1,1.268195987E0,5.264209956E-2,9.446864128E0
6.736597960E-1,1.296909928E0,-1.435693540E-2,9.772287369E0
6.833445880E-1,1.316052437E0,-9.092725813E-2,9.973284721E0
6.930298480E-1,1.268195987E0,1.866401732E-1,1.018385315E1
7.027152650E-1,1.296909928E0,2.871387079E-2,1.068634605E1
7.124007340E-1,1.368694544E0,-3.828516230E-2,9.552147865E0
7.220845360E-1,1.339980721E0,3.828516230E-2,9.671789169E0
7.317700040E-1,1.359123230E0,2.392822690E-2,1.000199890E1
7.414543790E-1,1.473978758E0,-1.148554832E-1,9.518648148E0
7.511389630E-1,1.612762451E0,-3.206382394E-1,9.738788605E0
7.608248480E-1,1.670190215E0,-4.115654826E-1,9.973284721E0
7.705098480E-1,1.641476393E0,-3.302095234E-1,9.805787086E0
7.801939630E-1,1.718046665E0,-4.115654826E-1,9.647860527E0
7.898789630E-1,1.832902193E0,-5.694918036E-1,9.595218658E0
7.995642230E-1,1.603191137E0,-1.627119333E-1,9.600004196E0
8.092494840E-1,1.507478237E0,6.699903309E-2,9.853643417E0
8.189332860E-1,1.339980721E0,4.067798555E-1,9.992427826E0
8.286187020E-1,1.406979680E0,4.211367965E-1,1.017906761E1
8.383042750E-1,1.435693622E0,4.498506486E-1,1.054756260E1
8.479896920E-1,1.545763373E0,4.211367965E-1,1.057149029E1
8.576743270E-1,1.713261008E0,5.168496966E-1,1.028435135E1
8.673592230E-1,1.904686809E0,5.407779217E-1,9.973284721E0
8.770442230E-1,1.976471543E0,6.412764788E-1,9.466006279E0
8.867294840E-1,1.904686809E0,7.465606928E-1,9.169296265E0
8.964143790E-1,1.890329838E0,2.679961324E-1,9.403793335E0
9.060994840E-1,1.804188251E0,1.531406492E-1,9.853643417E0
9.157846920E-1,1.143769264E0,7.657032609E-1,1.050927734E1
9.254696920E-1,1.148554921E0,1.368694544E0,1.045663452E1
9.351546920E-1,1.426122308E0,1.473978758E0,1.050927734E1
9.448407340E-1,1.545763373E0,1.526620865E0,1.037527943E1
9.545274000E-1,1.579262972E0,1.445264935E0,1.012164021E1
9.642126610E-1,1.627119422E0,1.387837172E0,1.013599682E1
9.738989110E-1,1.617548108E0,1.655833244E0,1.030827999E1
9.835860980E-1,1.574477315E0,2.081755638E0,1.043749237E1
9.932726090E-1,1.521835208E0,2.373680115E0,1.049013424E1
1.002957036E0,2.517249346E0,2.641676188E0,1.085384369E1
1.012642400E0,3.369094372E0,3.038884640E0,1.118883896E1
1.022330213E0,4.072584152E0,3.330809116E0,1.113619614E1
1.032014952E0,3.340380430E0,3.043670416E0,1.052841949E1
1.041702088E0,3.225524902E0,2.885744095E0,1.070070267E1
1.051388077E0,2.995813847E0,3.172882795E0,1.042313576E1
1.061073859E0,2.790031195E0,3.048455954E0,9.968499184E0
1.070758129E0,2.641676188E0,2.656033039E0,9.700503349E0
1.080444588E0,2.459821701E0,2.617748022E0,9.226723671E0
1.090130890E0,2.407179594E0,2.488535643E0,9.432506561E0
1.099817036E0,2.120040894E0,2.751745939E0,9.853643417E0
1.109503234E0,1.770688772E0,2.957528830E0,9.872786522E0
1.119189223E0,1.674975872E0,3.038884640E0,9.920642853E0
1.128874484E0,1.727617979E0,3.196810961E0,1.000678444E1
1.138559275E0,1.832902193E0,3.163311481E0,9.944570541E0
1.148243494E0,1.674975872E0,3.153740168E0,9.643074989E0
1.157928859E0,1.521835208E0,3.373879910E0,9.681360245E0
1.167613650E0,1.378265858E0,3.694518089E0,9.604789734E0
1.177299900E0,1.167697430E0,3.814159393E0,9.351150513E0
1.186986723E0,1.028913736E0,3.646661758E0,8.858229637E0
1.196671879E0,1.110269666E0,3.512663603E0,8.489734650E0
1.206356515E0,1.517049551E0,3.259024382E0,8.197810173E0
1.216040577E0,1.780260086E0,3.053241730E0,8.216953278E0
1.225726046E0,1.933400750E0,3.326023579E0,7.733603001E0
1.235410681E0,1.962114573E0,3.574877024E0,7.901100159E0
1.245095994E0,2.000399828E0,4.077369690E0,8.307880402E0
1.254782140E0,1.899901152E0,4.168296814E0,8.719446182E0
1.264467348E0,1.205982566E0,3.302095175E0,8.499305725E0
1.274152765E0,1.296909928E0,3.761517286E0,8.877371788E0
1.283838702E0,1.493121386E0,5.426921844E0,8.695517540E0
1.293525421E0,1.009771109E0,5.943771362E0,8.518448830E0
1.303211202E0,8.614161611E-1,4.876572609E0,8.470592499E0
1.312896098E0,7.226324677E-1,4.173082829E0,7.925028801E0
1.322582817E0,3.349951804E-1,4.292723656E0,7.623532772E0
1.332269119E0,-9.571290761E-2,4.350151539E0,7.365108013E0
1.341954692E0,-2.153540403E-1,4.646861553E0,7.173682213E0
1.351639952E0,-2.727817893E-1,5.005784988E0,6.551548481E0
1.361326150E0,-2.871387079E-2,4.761716843E0,6.034698486E0
1.371012348E0,-1.100698411E-1,4.474578381E0,6.187839508E0
1.380697244E0,-1.387837082E-1,4.412364960E0,6.302694798E0
1.390384171E0,3.349951655E-2,4.924428940E0,6.206982136E0
1.400071931E0,2.632105052E-1,4.680361271E0,6.058627129E0
1.409760056E0,4.737788737E-1,4.981856823E0,6.001199245E0
1.419446359E0,1.674975902E-1,6.250052929E0,5.431707382E0
1.429132765E0,6.699903309E-2,6.915257454E0,5.733202934E0
1.438820317E0,9.092725813E-2,7.360322475E0,6.379265308E0
1.448506254E0,1.148554832E-1,7.456035137E0,6.642475605E0
1.458191306E0,5.790630579E-1,7.695317745E0,5.871986866E0
1.467875421E0,1.076770186E0,8.087740898E0,6.178267956E0
1.477561411E0,1.153340459E0,8.829515457E0,6.896114826E0
1.487248025E0,-1.196411327E-1,9.269794464E0,6.704689026E0
1.496934796E0,-8.518448472E-1,9.126225471E0,8.116454124E0
1.506620369E0,-1.392622828E0,9.265008926E0,8.671588898E0
1.516307036E0,-1.450050473E0,9.159725189E0,8.250452042E0
1.525994223E0,-5.790630579E-1,8.968298912E0,7.695317745E0
1.535680056E0,9.571290575E-3,8.609375954E0,6.714260101E0
1.545368025E0,-3.972085714E-1,7.968099594E0,6.082555294E0
1.555055004E0,-1.244267821E0,7.460821152E0,6.240481377E0
1.564741150E0,-1.158126116E0,7.499105930E0,6.192625046E0
1.574428702E0,-9.523434043E-1,7.867600918E0,5.469992638E0
1.584115317E0,-7.848458290E-1,8.092526436E0,5.225924492E0
1.593801619E0,-5.120640397E-1,8.183453560E0,5.412564754E0
1.603489171E0,3.349951804E-1,8.350951195E0,5.139782906E0
1.613174952E0,-2.823530734E-1,3.426522017E0,8.202595711E0
1.622860317E0,-2.249253243E-1,6.407979012E0,1.268195987E0
1.632548129E0,-5.024927258E-1,7.982456207E0,1.837687731E0
1.642235317E0,-5.072783828E-1,9.221938133E0,3.125026464E0
1.651922973E0,-3.397808075E-1,8.556734085E0,3.321237803E0
1.661608650E0,-6.939185858E-1,7.709674358E0,4.139583111E0
1.671295525E0,-7.082754970E-1,7.858029366E0,4.733003139E0
1.680982296E0,-9.044869542E-1,8.173882484E0,5.168497086E0
1.690668442E0,-9.140582681E-1,8.240880966E0,5.546562672E0
1.700355838E0,-6.364908218E-1,8.307880402E0,5.379065514E0
1.710041515E0,-5.359922647E-1,8.882157326E0,4.709074974E0
1.719727713E0,-6.221338734E-2,9.528220177E0,3.555734396E0
1.729412817E0,3.349951804E-1,9.662218094E0,3.517449379E0
1.739099796E0,-1.435693540E-2,8.901300430E0,4.350151539E0
1.748786150E0,-3.493520916E-1,9.451649666E0,4.378865242E0
1.758472400E0,-4.594219327E-1,1.033699417E1,5.608776093E0
1.768158025E0,-1.153340459E0,1.065763187E1,6.680760860E0
1.777844796E0,-8.422735929E-1,9.848857880E0,5.402993679E0
1.787531567E0,-1.100698411E-1,8.829515457E0,4.048655987E0
1.797218702E0,-3.206382394E-1,8.365307808E0,3.996013880E0
1.806905265E0,-6.795616150E-1,8.403593063E0,3.421736479E0
1.816590629E0,-2.584248483E-1,8.303094864E0,3.407379389E0
1.826277609E0,-4.785645306E-1,8.633303642E0,4.316651821E0
1.835962504E0,-2.919243574E-1,1.272024536E1,7.513463020E0
1.845649119E0,-1.100698411E-1,8.958727837E0,3.306880951E0
1.855335577E0,-9.523434043E-1,8.590232849E0,3.364308596E0
1.865021827E0,-1.124626637E0,9.221938133E0,4.508078098E0
1.874707713E0,-6.317051649E-1,8.920442581E0,3.670589924E0
1.884394848E0,-3.828516304E-1,9.365508080E0,2.675175667E0
1.894080994E0,1.339980662E-1,9.571290970E0,1.875972986E0
1.903766723E0,1.483550072E-1,9.528220177E0,2.612962246E0
1.913452036E0,-3.684946895E-1,9.207581520E0,3.713660717E0
1.923137088E0,-7.130611539E-1,9.250652313E0,3.507878065E0
1.932822765E0,-4.402793646E-1,9.667003632E0,2.459821701E0
1.942509119E0,-2.775674164E-1,9.600004196E0,2.445464849E0
1.952195577E0,-2.297109663E-1,9.533005714E0,2.660818815E0
1.961880734E0,-2.584248483E-1,9.537791252E0,2.603390932E0
1.971565317E0,-1.100698411E-1,9.561718941E0,2.512463808E0
1.981249848E0,5.264209956E-2,9.614361763E0,2.301895380E0
1.990934171E0,1.244267747E-1,9.652647018E0,2.234896421E0
2.000620369E0,-2.871387303E-1,9.312865257E0,3.148954630E0
2.010305577E0,-3.780659735E-1,9.298508644E0,3.220739365E0
2.019991359E0,-3.493520916E-1,9.638289452E0,2.464607239E0
2.029675681E0,-2.967100143E-1,9.662218094E0,2.225325108E0
2.039360213E0,-5.647061467E-1,9.422935486E0,2.617748022E0
2.049046411E0,-5.024927258E-1,9.489934921E0,2.971885681E0
2.058731306E0,-4.546363056E-1,9.590433121E0,2.847458839E0
2.068417088E0,-3.206382394E-1,9.681360245E0,2.679961443E0
2.078101463E0,-4.594219327E-1,9.499505997E0,6.503692150E0
2.087785577E0,-1.588834286E0,8.843872070E0,2.852244616E0
2.097470838E0,-3.014956415E-1,9.815358162E0,2.000399828E0
2.107156723E0,-3.780659735E-1,9.667003632E0,2.517249346E0
2.116841879E0,-7.226324677E-1,9.480362892E0,2.823530674E0
2.126527609E0,-5.455635786E-1,9.633503914E0,2.545963287E0
2.136213129E0,-3.972085714E-1,9.489934921E0,2.761317253E0
2.145896827E0,-1.914258152E-1,9.580862045E0,2.569891453E0
2.155582504E0,1.531406492E-1,9.686145782E0,2.431107759E0
2.165266671E0,-2.105683982E-1,9.743574142E0,2.268395901E0
2.174950056E0,-3.924229145E-1,9.590433121E0,2.536391973E0
2.184632973E0,-1.196411327E-1,9.676574707E0,2.297109842E0
2.194316723E0,-2.488535494E-1,9.556933403E0,2.416750908E0
2.203999379E0,-3.158525825E-1,9.312865257E0,3.110669374E0
2.213684900E0,4.307080805E-2,9.461220741E0,2.976671457E0
2.223370213E0,4.307080805E-2,9.705288887E0,2.340180635E0
2.233054275E0,3.349951655E-2,9.992427826E0,1.421336651E0
2.242737452E0,1.148554832E-1,1.012164021E1,8.757730722E-1
2.252421723E0,-7.609176040E-1,9.887143135E0,1.909472466E0
2.262106046E0,-9.427721500E-1,9.848857880E0,1.641476393E0
2.271790942E0,-6.652047038E-1,9.748359680E0,2.206182480E0
2.281475577E0,-2.392822690E-2,9.102297783E0,4.077369690E0
2.291159015E0,2.871387079E-2,9.131011009E0,2.742174864E0
2.300843181E0,-6.221338734E-2,9.413364410E0,2.531606436E0
2.310526463E0,-1.866401732E-1,9.451649666E0,2.517249346E0
2.320210265E0,-1.818545163E-1,9.437292099E0,2.684746981E0
2.329895421E0,-1.004985496E-1,9.609575272E0,2.359323025E0
2.339581775E0,-9.571290761E-2,9.700503349E0,2.143969059E0
2.349267817E0,-1.148554832E-1,9.714859962E0,2.033899307E0
2.358952400E0,-1.387837082E-1,9.734002113E0,2.009970903E0
2.368637348E0,-1.052841991E-1,9.729216576E0,2.009970903E0
2.378321463E0,-1.244267747E-1,9.734002113E0,1.986042738E0
2.388005213E0,-1.052841991E-1,9.724431038E0,1.966900229E0
2.397690265E0,-1.196411327E-1,9.729216576E0,1.947757602E0
2.407374796E0,-1.148554832E-1,9.734002113E0,1.966900229E0
2.417058598E0,-1.196411327E-1,9.748359680E0,1.981257200E0
2.426743494E0,-1.435693651E-1,9.734002113E0,2.053041935E0
2.436427556E0,-1.100698411E-1,9.743574142E0,1.947757602E0
2.446112609E0,-1.148554832E-1,9.734002113E0,2.043470621E0
2.455797140E0,-1.244267747E-1,9.734002113E0,1.995614052E0
2.465481827E0,-1.292124242E-1,9.748359680E0,1.981257200E0
2.475167036E0,-1.148554832E-1,9.738788605E0,1.995614052E0
2.484851723E0,-1.004985496E-1,9.734002113E0,2.005185366E0
2.494536931E0,-1.100698411E-1,9.738788605E0,1.971685886E0
2.504221411E0,-1.148554832E-1,9.729216576E0,1.947757602E0
2.513907036E0,-1.339980662E-1,9.734002113E0,1.966900229E0
2.523592609E0,-2.297109663E-1,9.834501266E0,1.871187329E0
2.533276879E0,-5.503492355E-1,9.982855797E0,1.478764415E0
2.542962140E0,-9.810572863E-1,1.014556789E1,1.071984529E0
2.552647244E0,-1.311266780E0,1.018863869E1,8.231309652E-1
2.562332609E0,-1.368694544E0,1.004506969E1,1.411765337E0
2.572018650E0,-1.306481123E0,1.029870892E1,6.891329288E-1
2.581704848E0,-9.858429432E-1,1.025563812E1,5.168496966E-1
2.591391098E0,-5.264210105E-1,9.992427826E0,9.667003751E-1
2.601075629E0,-2.440679073E-1,9.815358162E0,9.810572863E-1
2.610760681E0,3.397808075E-1,9.556933403E0,2.402393818E0
2.620446671E0,6.604190469E-1,9.681360245E0,2.105684042E0
2.630132192E0,3.828516304E-1,9.777072906E0,1.311266780E0
2.639817869E0,-2.105683982E-1,9.834501266E0,5.312066078E-1
2.649503234E0,-1.579262912E-1,9.820143700E0,1.287338614E0
2.659188234E0,-2.392822690E-2,9.834501266E0,1.119840980E0
2.668872088E0,-1.004985496E-1,9.791430473E0,2.230110645E0
2.678557296E0,1.914258115E-2,9.829715729E0,1.158126116E0
2.688243650E0,2.057827413E-1,9.805787086E0,1.306481123E0
2.697930109E0,5.790630579E-1,9.815358162E0,1.770688742E-1
2.707615525E0,1.383051515E0,9.710074425E0,-2.057827413E-1
2.717299327E0,1.789831281E0,9.724431038E0,-1.196411327E-1
2.726984379E0,9.810572863E-1,9.614361763E0,4.981856823E0
2.736669327E0,-4.785645306E-1,9.695717812E0,1.966900229E0
2.746352973E0,-7.322037220E-1,9.667003632E0,2.727817774E0
2.756038129E0,-2.344966233E-1,9.757930756E0,2.268395901E0
2.765723129E0,-1.435693651E-1,9.915857315E0,6.987041831E-1
2.775408077E0,-1.244267747E-1,9.915857315E0,6.891329288E-1
2.785093390E0,-1.866401732E-1,9.906285286E0,7.561319470E-1
2.794779119E0,-4.307080805E-1,9.925428391E0,6.221339107E-1
2.804465577E0,-5.934200287E-1,9.992427826E0,1.339980662E-1
2.814149484E0,-6.939185858E-1,1.002592659E1,-1.004985496E-1
2.823831879E0,-5.886343718E-1,1.003549862E1,-6.364908218E-1
2.833517400E0,-2.297109663E-1,9.973284721E0,-1.674975902E-1
2.843202088E0,-1.674975902E-1,9.901499748E0,5.120640397E-1
2.852886046E0,-9.571290575E-3,9.868000984E0,9.619147182E-1
2.862570942E0,0.000000000E0,9.887143135E0,8.039883971E-1
2.872255786E0,9.571290761E-2,9.891928673E0,8.566305041E-1
2.881940109E0,-1.292124242E-1,9.939785004E0,-1.052841991E-1
2.891625161E0,-2.009970993E-1,9.925428391E0,1.818545163E-1
2.901310004E0,-3.349951804E-1,9.949356079E0,4.785645287E-3
2.910994067E0,-2.967100143E-1,9.911071777E0,1.866401732E-1
2.920678754E0,-1.339980662E-1,9.906285286E0,2.440679073E-1
2.930363598E0,-1.770688742E-1,9.896714211E0,-2.105683982E-1
2.940049171E0,1.722832322E-1,1.025563812E1,-2.249253243E-1
2.949735369E0,1.660618901E0,9.743574142E0,5.000999451E0
2.959421411E0,-4.307080805E-2,9.681360245E0,2.823530734E-1
2.969106931E0,-1.196411327E-1,9.920642853E0,1.818545163E-1
2.978792973E0,-1.100698411E-1,9.934999466E0,2.823530734E-1
2.988477504E0,-1.196411327E-1,9.930213928E0,2.344966233E-1
2.998163494E0,-1.244267747E-1,9.930213928E0,1.100698411E-1
3.007849327E0,-1.292124242E-1,9.930213928E0,2.009970993E-1
3.017535109E0,-1.387837082E-1,9.949356079E0,1.962114573E-1
3.027220786E0,-1.292124242E-1,9.939785004E0,1.818545163E-1
3.036906619E0,-1.196411327E-1,9.925428391E0,1.866401732E-1
3.046592973E0,-1.196411327E-1,9.934999466E0,1.914258152E-1
3.056278911E0,-1.196411327E-1,9.930213928E0,1.483550072E-1
3.065964588E0,-1.148554832E-1,9.925428391E0,1.866401732E-1
3.075649588E0,-1.100698411E-1,9.939785004E0,1.531406492E-1
3.085334588E0,-1.339980662E-1,9.939785004E0,1.531406492E-1
3.095018494E0,-1.244267747E-1,9.939785004E0,1.770688742E-1
3.104704588E0,-1.196411327E-1,9.930213928E0,1.914258152E-1
3.114390421E0,-1.244267747E-1,9.925428391E0,1.818545163E-1
3.124076202E0,-1.339980662E-1,9.934999466E0,1.770688742E-1
3.133761567E0,-1.292124242E-1,9.915857315E0,1.674975902E-1
3.143446306E0,-1.196411327E-1,9.920642853E0,2.153540403E-1
3.153131723E0,-1.196411327E-1,9.939785004E0,1.292124242E-1
3.162817713E0,-1.196411327E-1,9.920642853E0,1.627119333E-1
3.172503338E0,-1.148554832E-1,9.949356079E0,2.153540403E-1
3.182189171E0,-1.148554832E-1,9.949356079E0,2.249253243E-1
3.191875317E0,-1.244267747E-1,9.930213928E0,1.483550072E-1
3.201561723E0,-1.004985496E-1,9.930213928E0,1.387837082E-1
3.211246619E0,-1.148554832E-1,9.915857315E0,2.344966233E-1
3.220932036E0,-1.196411327E-1,9.930213928E0,1.818545163E-1
3.230617504E0,-1.292124242E-1,9.949356079E0,1.627119333E-1
3.240303494E0,-1.339980662E-1,9.944570541E0,1.818545163E-1
3.249989900E0,-1.052841991E-1,9.925428391E0,1.818545163E-1
3.259675681E0,-1.339980662E-1,9.925428391E0,1.962114573E-1
3.269361306E0,-1.196411327E-1,9.934999466E0,1.722832322E-1
3.279046775E0,-1.244267747E-1,9.934999466E0,1.770688742E-1
3.288733077E0,-1.244267747E-1,9.925428391E0,1.770688742E-1
3.298418286E0,-1.244267747E-1,9.939785004E0,2.009970993E-1
3.308103754E0,-1.196411327E-1,9.930213928E0,1.627119333E-1
3.317789536E0,-1.244267747E-1,9.939785004E0,2.105683982E-1
3.327475629E0,-1.292124242E-1,9.944570541E0,2.249253243E-1
3.337160734E0,-1.148554832E-1,9.939785004E0,1.387837082E-1
3.346846567E0,-1.196411327E-1,9.949356079E0,1.674975902E-1
3.356531879E0,-1.196411327E-1,9.925428391E0,1.531406492E-1
3.366215890E0,-1.196411327E-1,9.934999466E0,1.627119333E-1
3.375901515E0,-1.292124242E-1,9.930213928E0,1.818545163E-1
3.385588650E0,-1.196411327E-1,9.911071777E0,2.201396823E-1
3.395273859E0,-1.387837082E-1,9.934999466E0,1.627119333E-1
3.404959379E0,-1.196411327E-1,9.934999466E0,1.531406492E-1
3.414645109E0,-1.148554832E-1,9.920642853E0,1.962114573E-1
3.424332244E0,-1.339980662E-1,9.944570541E0,2.009970993E-1
3.434018390E0,-1.196411327E-1,9.934999466E0,1.674975902E-1
3.443702713E0,-1.148554832E-1,9.939785004E0,1.579262912E-1
3.453388859E0,-1.148554832E-1,9.939785004E0,1.722832322E-1
3.463073650E0,-1.196411327E-1,9.925428391E0,2.297109663E-1
3.472758806E0,-1.244267747E-1,9.944570541E0,1.483550072E-1
3.482445525E0,-1.244267747E-1,9.925428391E0,2.057827413E-1
3.492130681E0,-1.244267747E-1,9.939785004E0,1.387837082E-1
3.501815890E0,-1.196411327E-1,9.920642853E0,1.722832322E-1
3.511500525E0,-1.292124242E-1,9.925428391E0,1.627119333E-1
3.521184796E0,-1.244267747E-1,9.939785004E0,1.866401732E-1
3.530870577E0,-1.292124242E-1,9.925428391E0,1.627119333E-1
3.540555265E0,-1.244267747E-1,9.925428391E0,2.201396823E-1
3.550240473E0,-1.244267747E-1,9.930213928E0,1.914258152E-1
3.559925213E0,-1.292124242E-1,9.930213928E0,1.818545163E-1
3.569609640E0,-1.292124242E-1,9.939785004E0,1.292124242E-1
3.579294536E0,-1.196411327E-1,9.934999466E0,1.387837082E-1
3.588978702E0,-1.244267747E-1,9.944570541E0,1.674975902E-1
3.598663442E0,-1.244267747E-1,9.930213928E0,1.674975902E-1
3.608347556E0,-1.244267747E-1,9.939785004E0,1.722832322E-1
3.618032296E0,-1.100698411E-1,9.944570541E0,1.962114573E-1
3.627717609E0,-1.148554832E-1,9.939785004E0,1.770688742E-1
3.637403025E0,-1.292124242E-1,9.925428391E0,2.009970993E-1
3.647088181E0,-1.339980662E-1,9.930213928E0,1.866401732E-1
3.656774171E0,-1.196411327E-1,9.925428391E0,1.483550072E-1
3.666458702E0,-1.100698411E-1,9.915857315E0,1.674975902E-1
3.676144431E0,-1.292124242E-1,9.925428391E0,1.770688742E-1
3.685830942E0,-1.196411327E-1,9.944570541E0,1.627119333E-1
3.695515994E0,-1.339980662E-1,9.944570541E0,1.818545163E-1
3.705200942E0,-1.339980662E-1,9.939785004E0,1.770688742E-1
3.714884952E0,-1.244267747E-1,9.944570541E0,2.584248483E-1
3.724570577E0,-1.196411327E-1,9.939785004E0,1.579262912E-1
3.734256723E0,-1.196411327E-1,9.925428391E0,1.435693651E-1
3.743942348E0,-1.244267747E-1,9.939785004E0,1.866401732E-1
3.753627452E0,-1.339980662E-1,9.939785004E0,1.770688742E-1
3.763312713E0,-1.244267747E-1,9.944570541E0,1.818545163E-1
3.772997348E0,-1.292124242E-1,9.930213928E0,1.914258152E-1
3.782682088E0,-1.292124242E-1,9.925428391E0,2.201396823E-1
3.792366046E0,-1.196411327E-1,9.934999466E0,1.627119333E-1
3.802050890E0,-1.196411327E-1,9.934999466E0,1.818545163E-1
3.811735473E0,-1.244267747E-1,9.934999466E0,2.057827413E-1
3.821421202E0,-1.244267747E-1,9.920642853E0,1.100698411E-1
3.831105004E0,-1.292124242E-1,9.915857315E0,1.627119333E-1
3.840789588E0,-1.100698411E-1,9.925428391E0,1.962114573E-1
3.850474171E0,-1.339980662E-1,9.920642853E0,1.866401732E-1
3.860158702E0,-1.148554832E-1,9.939785004E0,1.818545163E-1
3.869842713E0,-1.196411327E-1,9.934999466E0,1.914258152E-1
3.879527765E0,-1.100698411E-1,9.930213928E0,1.770688742E-1
3.889211567E0,-1.292124242E-1,9.939785004E0,1.674975902E-1
3.898896931E0,-1.244267747E-1,9.939785004E0,1.531406492E-1
3.908582661E0,-1.196411327E-1,9.930213928E0,1.579262912E-1
3.918268390E0,-1.292124242E-1,9.939785004E0,1.483550072E-1
3.927953338E0,-1.244267747E-1,9.939785004E0,2.057827413E-1
3.937638650E0,-1.339980662E-1,9.920642853E0,1.770688742E-1
3.947322504E0,-1.196411327E-1,9.920642853E0,1.962114573E-1
3.957008650E0,-1.148554832E-1,9.911071777E0,1.818545163E-1
3.966694327E0,-1.196411327E-1,9.934999466E0,1.818545163E-1
3.976378650E0,-1.196411327E-1,9.920642853E0,1.866401732E-1
3.986062973E0,-1.292124242E-1,9.939785004E0,1.818545163E-1
3.995748129E0,-1.196411327E-1,9.944570541E0,1.722832322E-1
4.005434327E0,-1.339980662E-1,9.925428391E0,1.770688742E-1
4.015120056E0,-1.148554832E-1,9.939785004E0,1.674975902E-1
4.024806463E0,-1.196411327E-1,9.920642853E0,1.722832322E-1
4.034492452E0,-1.435693651E-1,9.925428391E0,1.818545163E-1
4.044176619E0,-1.196411327E-1,9.920642853E0,1.722832322E-1
4.053862400E0,-1.244267747E-1,9.944570541E0,1.818545163E-1
4.063548286E0,-1.292124242E-1,9.925428391E0,1.818545163E-1
4.073235317E0,-1.339980662E-1,9.925428391E0,1.722832322E-1
4.082919796E0,-1.244267747E-1,9.920642853E0,1.818545163E-1
4.092606515E0,-1.148554832E-1,9.930213928E0,1.962114573E-1
4.102290994E0,-1.244267747E-1,9.930213928E0,1.770688742E-1
4.111976306E0,-1.244267747E-1,9.930213928E0,1.770688742E-1
4.121661254E0,-1.148554832E-1,9.944570541E0,1.866401732E-1
4.131347556E0,-1.196411327E-1,9.920642853E0,1.914258152E-1
4.141033859E0,-1.196411327E-1,9.925428391E0,1.818545163E-1
4.150721359E0,-1.148554832E-1,9.920642853E0,1.866401732E-1
4.160407609E0,-1.196411327E-1,9.930213928E0,1.866401732E-1
4.170092765E0,-1.292124242E-1,9.930213928E0,1.722832322E-1
4.179779431E0,-1.100698411E-1,9.939785004E0,1.627119333E-1
4.189465161E0,-1.148554832E-1,9.934999466E0,1.866401732E-1
4.199149327E0,-1.483550072E-1,9.915857315E0,1.818545163E-1
4.208834067E0,-1.196411327E-1,9.920642853E0,1.818545163E-1
4.218519796E0,-1.339980662E-1,9.920642853E0,2.009970993E-1
4.228206046E0,-1.292124242E-1,9.930213928E0,1.818545163E-1
4.237891359E0,-1.244267747E-1,9.934999466E0,1.914258152E-1
4.247577400E0,-1.196411327E-1,9.934999466E0,1.818545163E-1
4.257264223E0,-1.100698411E-1,9.925428391E0,1.866401732E-1
4.266950734E0,-1.148554832E-1,9.925428391E0,1.579262912E-1
4.276636359E0,-1.244267747E-1,9.920642853E0,1.722832322E-1
4.286320890E0,-1.531406492E-1,9.939785004E0,1.674975902E-1
4.296006150E0,-1.148554832E-1,9.930213928E0,1.866401732E-1
4.305691202E0,-1.292124242E-1,9.934999466E0,1.770688742E-1
4.315375994E0,-1.339980662E-1,9.915857315E0,1.770688742E-1
4.325060213E0,-1.196411327E-1,9.920642853E0,1.770688742E-1
4.334745056E0,-1.292124242E-1,9.934999466E0,1.818545163E-1
4.344429952E0,-1.148554832E-1,9.930213928E0,1.722832322E-1
4.354113338E0,-1.292124242E-1,9.944570541E0,1.914258152E-1
4.363798129E0,-1.196411327E-1,9.930213928E0,1.674975902E-1
4.373483181E0,-1.196411327E-1,9.934999466E0,1.818545163E-1
4.383167296E0,-1.339980662E-1,9.925428391E0,1.818545163E-1
4.392852192E0,-1.387837082E-1,9.925428391E0,1.674975902E-1
4.402538859E0,-1.339980662E-1,9.915857315E0,1.770688742E-1
4.412226046E0,-1.148554832E-1,9.930213928E0,1.818545163E-1
4.421912973E0,-1.244267747E-1,9.925428391E0,1.818545163E-1
4.431598702E0,-1.148554832E-1,9.930213928E0,1.722832322E-1
4.441284536E0,-1.292124242E-1,9.930213928E0,1.674975902E-1
4.450969379E0,-1.339980662E-1,9.920642853E0,1.818545163E-1
4.460653806E0,-1.004985496E-1,9.925428391E0,1.866401732E-1
4.470338650E0,-1.196411327E-1,9.944570541E0,1.770688742E-1
4.480024015E0,-1.148554832E-1,9.939785004E0,1.914258152E-1
4.489710265E0,-1.148554832E-1,9.930213928E0,1.818545163E-1
4.499395994E0,-1.292124242E-1,9.925428391E0,1.674975902E-1
4.509082088E0,-1.148554832E-1,9.925428391E0,1.674975902E-1
4.518767296E0,-1.292124242E-1,9.934999466E0,1.722832322E-1
4.528452140E0,-1.196411327E-1,9.934999466E0,1.818545163E-1
4.538136411E0,-1.148554832E-1,9.920642853E0,1.722832322E-1
4.547820994E0,-1.292124242E-1,9.925428391E0,1.914258152E-1
4.557505525E0,-1.196411327E-1,9.934999466E0,1.962114573E-1
4.567191046E0,-1.196411327E-1,9.939785004E0,1.770688742E-1
4.576876098E0,-1.196411327E-1,9.920642853E0,1.818545163E-1
4.586561150E0,-1.196411327E-1,9.930213928E0,1.770688742E-1
4.596247973E0,-1.196411327E-1,9.925428391E0,1.722832322E-1
4.605933598E0,-1.148554832E-1,9.925428391E0,1.962114573E-1
4.615621411E0,-1.244267747E-1,9.930213928E0,1.818545163E-1
4.625306671E0,-1.292124242E-1,9.939785004E0,1.770688742E-1
4.634991671E0,-1.196411327E-1,9.920642853E0,1.866401732E-1
4.644677140E0,-1.339980662E-1,9.930213928E0,1.866401732E-1
4.654362244E0,-1.292124242E-1,9.925428391E0,1.818545163E-1
4.664046827E0,-1.100698411E-1,9.939785004E0,1.914258152E-1
4.673732973E0,-1.148554832E-1,9.939785004E0,1.866401732E-1
4.683417973E0,-1.196411327E-1,9.949356079E0,1.770688742E-1
4.693102713E0,-1.339980662E-1,9.930213928E0,1.770688742E-1
4.702786827E0,-1.483550072E-1,9.911071777E0,1.818545163E-1
4.712472869E0,-1.196411327E-1,9.934999466E0,1.866401732E-1
4.722159327E0,-1.148554832E-1,9.920642853E0,1.818545163E-1
4.731844223E0,-1.339980662E-1,9.925428391E0,1.818545163E-1
4.741530161E0,-1.244267747E-1,9.930213928E0,1.818545163E-1
4.751216879E0,-1.292124242E-1,9.944570541E0,1.914258152E-1
4.760902088E0,-1.339980662E-1,9.934999466E0,1.722832322E-1
4.770587921E0,-1.244267747E-1,9.939785004E0,1.722832322E-1
4.780274640E0,-1.196411327E-1,9.930213928E0,1.818545163E-1
4.789960525E0,-1.244267747E-1,9.939785004E0,1.818545163E-1
4.799646411E0,-1.339980662E-1,9.934999466E0,1.770688742E-1
4.809331046E0,-1.339980662E-1,9.944570541E0,1.818545163E-1
4.819015890E0,-1.100698411E-1,9.930213928E0,1.818545163E-1
4.828702556E0,-1.244267747E-1,9.930213928E0,1.962114573E-1
4.838387556E0,-1.292124242E-1,9.939785004E0,1.866401732E-1
4.848073911E0,-1.148554832E-1,9.939785004E0,1.818545163E-1
4.857758702E0,-1.292124242E-1,9.920642853E0,1.674975902E-1
4.867444900E0,-1.244267747E-1,9.920642853E0,1.722832322E-1
4.877130317E0,-1.339980662E-1,9.944570541E0,1.866401732E-1
4.886815056E0,-1.339980662E-1,9.930213928E0,1.914258152E-1
4.896500838E0,-1.196411327E-1,9.944570541E0,1.770688742E-1
4.906186359E0,-1.196411327E-1,9.944570541E0,1.818545163E-1
4.915870786E0,-1.339980662E-1,9.934999466E0,1.818545163E-1
4.925556411E0,-1.292124242E-1,9.911071777E0,1.770688742E-1
4.935240681E0,-1.148554832E-1,9.939785004E0,1.962114573E-1
4.944925838E0,-1.339980662E-1,9.939785004E0,1.818545163E-1
4.954609900E0,-1.244267747E-1,9.911071777E0,1.770688742E-1
4.964294900E0,-1.148554832E-1,9.930213928E0,1.627119333E-1
4.973979327E0,-1.148554832E-1,9.930213928E0,2.153540403E-1
4.983664067E0,-1.244267747E-1,9.906285286E0,1.962114573E-1
4.993349431E0,-1.244267747E-1,9.911071777E0,1.818545163E-1
5.003034848E0,-1.148554832E-1,9.920642853E0,1.818545163E-1
5.012720681E0,-1.196411327E-1,9.939785004E0,1.674975902E-1
5.022406827E0,-1.435693651E-1,9.920642853E0,1.914258152E-1
5.032091463E0,-1.196411327E-1,9.934999466E0,1.818545163E-1
5.041777348E0,-1.148554832E-1,9.925428391E0,1.866401732E-1
5.051462609E0,-1.244267747E-1,9.925428391E0,1.962114573E-1
5.061148702E0,-1.004985496E-1,9.939785004E0,1.722832322E-1
5.070833911E0,-1.435693651E-1,9.939785004E0,1.627119333E-1
5.080518859E0,-1.292124242E-1,9.925428391E0,1.818545163E-1
5.090203754E0,-1.387837082E-1,9.939785004E0,1.962114573E-1
5.099889067E0,-1.244267747E-1,9.934999466E0,1.770688742E-1
5.109575734E0,-1.244267747E-1,9.920642853E0,1.818545163E-1
5.119261931E0,-1.196411327E-1,9.930213928E0,1.722832322E-1
5.128946411E0,-1.244267747E-1,9.901499748E0,1.770688742E-1
5.138632296E0,-1.196411327E-1,9.930213928E0,1.866401732E-1
5.148317661E0,-1.196411327E-1,9.925428391E0,1.962114573E-1
5.158003129E0,-1.292124242E-1,9.934999466E0,1.722832322E-1
5.167687504E0,-1.339980662E-1,9.939785004E0,1.866401732E-1
5.177371150E0,-1.292124242E-1,9.925428391E0,1.866401732E-1
5.187056671E0,-1.244267747E-1,9.925428391E0,1.818545163E-1
5.196743077E0,-1.244267747E-1,9.930213928E0,1.435693651E-1
5.206427869E0,-1.292124242E-1,9.925428391E0,1.818545163E-1
5.216113025E0,-1.196411327E-1,9.915857315E0,1.866401732E-1
5.225798025E0,-1.244267747E-1,9.920642853E0,1.674975902E-1
5.235482869E0,-1.435693651E-1,9.925428391E0,1.770688742E-1
5.245166931E0,-1.292124242E-1,9.930213928E0,1.866401732E-1
5.254851359E0,-1.052841991E-1,9.925428391E0,2.009970993E-1
5.264536775E0,-1.196411327E-1,9.920642853E0,1.866401732E-1
5.274220786E0,-1.196411327E-1,9.934999466E0,1.818545163E-1
5.283904379E0,-1.387837082E-1,9.930213928E0,1.674975902E-1
5.293588859E0,-1.148554832E-1,9.925428391E0,1.674975902E-1
5.303273702E0,-1.244267747E-1,9.939785004E0,1.770688742E-1
5.312957192E0,-1.292124242E-1,9.934999466E0,1.722832322E-1
5.322640838E0,-1.196411327E-1,9.934999466E0,1.770688742E-1
5.332326567E0,-1.387837082E-1,9.925428391E0,1.818545163E-1
5.342012348E0,-1.292124242E-1,9.920642853E0,2.009970993E-1
5.351696411E0,-1.292124242E-1,9.925428391E0,1.483550072E-1
5.361381411E0,-1.292124242E-1,9.944570541E0,1.818545163E-1
5.371066411E0,-1.387837082E-1,9.925428391E0,1.818545163E-1
5.380750317E0,-1.196411327E-1,9.930213928E0,1.722832322E-1
5.390434379E0,-1.339980662E-1,9.930213928E0,1.818545163E-1
5.400119484E0,-1.483550072E-1,9.934999466E0,1.674975902E-1
5.409805890E0,-1.292124242E-1,9.925428391E0,1.818545163E-1
5.419491202E0,-1.339980662E-1,9.925428391E0,1.770688742E-1
5.429175369E0,-1.196411327E-1,9.920642853E0,1.722832322E-1
5.438860629E0,-1.100698411E-1,9.930213928E0,1.818545163E-1
5.448545681E0,-1.339980662E-1,9.925428391E0,1.770688742E-1
5.458232140E0,-1.100698411E-1,9.934999466E0,1.674975902E-1
5.467916879E0,-1.244267747E-1,9.939785004E0,1.674975902E-1
5.477601567E0,-1.387837082E-1,9.920642853E0,1.627119333E-1
5.487285525E0,-1.148554832E-1,9.939785004E0,1.531406492E-1
5.496969900E0,-1.292124242E-1,9.939785004E0,1.914258152E-1
5.506654796E0,-1.244267747E-1,9.939785004E0,1.962114573E-1
5.516339431E0,-1.244267747E-1,9.920642853E0,1.914258152E-1
5.526024171E0,-1.196411327E-1,9.925428391E0,1.674975902E-1
5.535708077E0,-1.292124242E-1,9.925428391E0,2.105683982E-1
5.545391879E0,-1.244267747E-1,9.930213928E0,2.153540403E-1
5.555076463E0,-1.196411327E-1,9.930213928E0,2.057827413E-1
5.564760838E0,-1.292124242E-1,9.954142570E0,1.914258152E-1
5.574446098E0,-1.244267747E-1,9.925428391E0,1.914258152E-1
5.584130525E0,-1.196411327E-1,9.911071777E0,2.009970993E-1
5.593815421E0,-1.148554832E-1,9.925428391E0,2.057827413E-1
5.603499431E0,-1.244267747E-1,9.925428391E0,1.914258152E-1
5.613184536E0,-1.244267747E-1,9.944570541E0,1.674975902E-1
5.622868234E0,-1.148554832E-1,9.939785004E0,1.722832322E-1
5.632552713E0,-1.483550072E-1,9.934999466E0,1.770688742E-1
5.642238129E0,-1.244267747E-1,9.930213928E0,1.962114573E-1
5.651926254E0,-1.244267747E-1,9.911071777E0,1.962114573E-1
5.661612036E0,-1.196411327E-1,9.930213928E0,1.866401732E-1
5.671298338E0,-1.244267747E-1,9.930213928E0,2.009970993E-1
5.680983494E0,-1.292124242E-1,9.939785004E0,1.866401732E-1
5.690669796E0,-1.339980662E-1,9.930213928E0,1.866401732E-1
5.700354640E0,-1.339980662E-1,9.930213928E0,1.770688742E-1
5.710039223E0,-1.244267747E-1,9.925428391E0,1.962114573E-1
5.719723546E0,-1.339980662E-1,9.939785004E0,2.009970993E-1
5.729408494E0,-1.196411327E-1,9.949356079E0,1.914258152E-1
5.739093181E0,-1.148554832E-1,9.939785004E0,1.818545163E-1
5.748777348E0,-1.148554832E-1,9.925428391E0,1.818545163E-1
5.758462504E0,-1.292124242E-1,9.930213928E0,1.818545163E-1
5.768147088E0,-1.148554832E-1,9.925428391E0,1.627119333E-1
5.777832765E0,-1.196411327E-1,9.939785004E0,1.770688742E-1
5.787517609E0,-1.292124242E-1,9.920642853E0,1.818545163E-1
5.797200890E0,-1.292124242E-1,9.920642853E0,1.722832322E-1
5.806885473E0,-1.292124242E-1,9.920642853E0,1.770688742E-1
5.816570109E0,-1.244267747E-1,9.944570541E0,1.866401732E-1
5.826255369E0,-1.196411327E-1,9.930213928E0,1.914258152E-1
5.835940421E0,-1.244267747E-1,9.925428391E0,1.818545163E-1
5.845626359E0,-1.196411327E-1,9.930213928E0,1.770688742E-1
5.855311515E0,-1.196411327E-1,9.925428391E0,1.818545163E-1
5.864995629E0,-1.435693651E-1,9.930213928E0,1.722832322E-1
5.874678963E0,-1.148554832E-1,9.930213928E0,1.435693651E-1
5.884362921E0,-1.100698411E-1,9.930213928E0,1.914258152E-1
5.894047244E0,-1.244267747E-1,9.939785004E0,1.770688742E-1
5.903732400E0,-1.196411327E-1,9.939785004E0,1.818545163E-1
5.913417244E0,-1.196411327E-1,9.930213928E0,1.818545163E-1
5.923102036E0,-1.292124242E-1,9.939785004E0,2.009970993E-1
5.932785213E0,-1.292124242E-1,9.925428391E0,1.627119333E-1
5.942470942E0,-1.196411327E-1,9.925428391E0,1.674975902E-1
5.952156567E0,-1.196411327E-1,9.934999466E0,1.722832322E-1
5.961842140E0,-1.292124242E-1,9.944570541E0,1.627119333E-1
5.971528025E0,-1.100698411E-1,9.930213928E0,1.722832322E-1
5.981213859E0,-1.292124242E-1,9.925428391E0,1.914258152E-1
5.990898963E0,-1.100698411E-1,9.920642853E0,1.818545163E-1
6.000583077E0,-1.148554832E-1,9.930213928E0,1.866401732E-1
6.010268754E0,-1.148554832E-1,9.930213928E0,1.770688742E-1
6.019953181E0,-1.292124242E-1,9.925428391E0,1.914258152E-1
6.029638025E0,-1.339980662E-1,9.930213928E0,1.722832322E-1
6.039323859E0,-1.292124242E-1,9.939785004E0,1.818545163E-1
6.049007869E0,-1.387837082E-1,9.949356079E0,1.866401732E-1
6.058692817E0,-1.292124242E-1,9.911071777E0,1.770688742E-1
6.068376515E0,-1.292124242E-1,9.930213928E0,1.914258152E-1
6.078060213E0,-1.292124242E-1,9.915857315E0,1.818545163E-1
6.087745161E0,-1.292124242E-1,9.930213928E0,1.866401732E-1
6.097430942E0,-1.292124242E-1,9.920642853E0,1.962114573E-1
6.107115213E0,-1.387837082E-1,9.930213928E0,1.818545163E-1
6.116800161E0,-1.292124242E-1,9.930213928E0,2.201396823E-1
6.126485056E0,-1.339980662E-1,9.939785004E0,1.531406492E-1
6.136169067E0,-1.292124242E-1,9.930213928E0,1.818545163E-1
6.145852817E0,-1.339980662E-1,9.939785004E0,1.818545163E-1
6.155536515E0,-1.244267747E-1,9.930213928E0,1.962114573E-1
6.165221619E0,-1.244267747E-1,9.939785004E0,1.866401732E-1
6.174905629E0,-1.244267747E-1,9.934999466E0,1.818545163E-1
6.184589848E0,-1.196411327E-1,9.939785004E0,1.866401732E-1
6.194273546E0,-1.435693651E-1,9.920642853E0,1.914258152E-1
6.203959744E0,-1.244267747E-1,9.930213928E0,1.770688742E-1
6.213646411E0,-1.196411327E-1,9.930213928E0,2.009970993E-1
6.223331463E0,-1.339980662E-1,9.939785004E0,1.914258152E-1
6.233016254E0,-1.244267747E-1,9.939785004E0,1.866401732E-1
6.242700525E0,-1.292124242E-1,9.920642853E0,2.009970993E-1
6.252385317E0,-1.387837082E-1,9.930213928E0,1.914258152E-1
6.262069015E0,-1.244267747E-1,9.920642853E0,1.770688742E-1
6.271753859E0,-1.196411327E-1,9.915857315E0,1.770688742E-1
6.281438338E0,-1.339980662E-1,9.925428391E0,1.770688742E-1
6.291123181E0,-1.244267747E-1,9.934999466E0,1.866401732E-1
6.300809275E0,-1.435693651E-1,9.930213928E0,1.722832322E-1
6.310495265E0,-1.387837082E-1,9.925428391E0,1.818545163E-1
6.320179848E0,-1.292124242E-1,9.934999466E0,1.770688742E-1
6.329864744E0,-1.100698411E-1,9.925428391E0,1.818545163E-1
6.339548181E0,-1.148554832E-1,9.934999466E0,1.866401732E-1
6.349233025E0,-1.292124242E-1,9.930213928E0,1.914258152E-1
6.358919692E0,-1.292124242E-1,9.934999466E0,1.962114573E-1
6.368605265E0,-1.339980662E-1,9.925428391E0,1.770688742E-1
6.378290525E0,-1.292124242E-1,9.925428391E0,1.914258152E-1
6.387977348E0,-1.196411327E-1,9.949356079E0,1.866401732E-1
6.397662869E0,-1.148554832E-1,9.939785004E0,1.818545163E-1
6.407347192E0,-1.244267747E-1,9.930213928E0,1.818545163E-1
6.417034275E0,-1.148554832E-1,9.934999466E0,1.770688742E-1
6.426721254E0,-1.244267747E-1,9.934999466E0,1.722832322E-1
6.436406202E0,-1.483550072E-1,9.925428391E0,1.818545163E-1
6.446089952E0,-1.196411327E-1,9.925428391E0,1.818545163E-1
6.455774952E0,-1.148554832E-1,9.949356079E0,1.722832322E-1
6.465459744E0,-1.148554832E-1,9.934999466E0,1.770688742E-1
6.475144744E0,-1.339980662E-1,9.930213928E0,1.866401732E-1
6.484830421E0,-1.339980662E-1,9.934999466E0,1.722832322E-1
6.494515734E0,-1.244267747E-1,9.939785004E0,1.818545163E-1
6.504200421E0,-1.196411327E-1,9.934999466E0,1.914258152E-1
6.513884796E0,-1.292124242E-1,9.934999466E0,1.914258152E-1
6.523569327E0,-1.387837082E-1,9.934999466E0,1.866401732E-1
6.533253546E0,-1.244267747E-1,9.939785004E0,1.770688742E-1
6.542939327E0,-1.244267747E-1,9.944570541E0,1.770688742E-1
6.552625317E0,-1.244267747E-1,9.925428391E0,1.818545163E-1
6.562312088E0,-1.244267747E-1,9.934999466E0,1.722832322E-1
6.571997504E0,-1.292124242E-1,9.930213928E0,1.866401732E-1
6.581683234E0,-1.292124242E-1,9.930213928E0,1.962114573E-1
6.591369119E0,-1.244267747E-1,9.939785004E0,1.770688742E-1
6.601054431E0,-1.148554832E-1,9.930213928E0,1.866401732E-1
6.610739223E0,-1.148554832E-1,9.944570541E0,1.866401732E-1
6.620425161E0,-1.292124242E-1,9.911071777E0,1.818545163E-1
6.630111984E0,-1.196411327E-1,9.934999466E0,1.674975902E-1
6.639796827E0,-1.339980662E-1,9.934999466E0,1.770688742E-1
6.649482244E0,-1.244267747E-1,9.939785004E0,1.770688742E-1
6.659167817E0,-1.244267747E-1,9.934999466E0,1.866401732E-1
6.668852348E0,-1.387837082E-1,9.920642853E0,1.866401732E-1
6.678538234E0,-1.435693651E-1,9.939785004E0,1.914258152E-1
6.688224171E0,-1.196411327E-1,9.925428391E0,1.770688742E-1
6.697909588E0,-1.292124242E-1,9.925428391E0,1.818545163E-1
6.707593911E0,-1.148554832E-1,9.915857315E0,1.866401732E-1
6.717280109E0,-1.196411327E-1,9.925428391E0,1.770688742E-1
6.726965161E0,-1.148554832E-1,9.934999466E0,1.722832322E-1
6.736649900E0,-1.292124242E-1,9.944570541E0,1.818545163E-1
6.746335942E0,-1.339980662E-1,9.939785004E0,1.818545163E-1
6.756021984E0,-1.244267747E-1,9.911071777E0,1.818545163E-1
6.765708025E0,-1.148554832E-1,9.920642853E0,1.914258152E-1
6.775393754E0,-1.244267747E-1,9.911071777E0,1.866401732E-1
6.785078911E0,-1.244267747E-1,9.925428391E0,1.722832322E-1
6.794764848E0,-1.292124242E-1,9.934999466E0,1.818545163E-1
6.804449536E0,-1.339980662E-1,9.930213928E0,1.866401732E-1
6.814134692E0,-1.196411327E-1,9.925428391E0,2.057827413E-1
6.823819484E0,-1.292124242E-1,9.930213928E0,1.818545163E-1
6.833504431E0,-1.244267747E-1,9.930213928E0,1.722832322E-1
6.843189223E0,-1.244267747E-1,9.934999466E0,1.866401732E-1
6.852874640E0,-1.196411327E-1,9.934999466E0,1.674975902E-1
6.862560004E0,-1.339980662E-1,9.925428391E0,1.866401732E-1
6.872246879E0,-1.292124242E-1,9.930213928E0,1.962114573E-1
6.881932504E0,-1.483550072E-1,9.920642853E0,1.818545163E-1
6.891617452E0,-1.339980662E-1,9.920642853E0,1.818545163E-1
6.901304015E0,-1.339980662E-1,9.915857315E0,1.722832322E-1
6.910989848E0,-1.196411327E-1,9.930213928E0,1.914258152E-1
6.920674952E0,-1.196411327E-1,9.930213928E0,1.818545163E-1
6.930360473E0,-1.292124242E-1,9.934999466E0,1.914258152E-1
6.940046723E0,-1.339980662E-1,9.925428391E0,1.818545163E-1
6.949730890E0,-1.387837082E-1,9.925428391E0,1.914258152E-1
6.959417609E0,-1.387837082E-1,9.930213928E0,1.866401732E-1
6.969102869E0,-1.148554832E-1,9.930213928E0,1.866401732E-1
6.978788286E0,-1.244267747E-1,9.930213928E0,1.866401732E-1
6.988472036E0,-1.148554832E-1,9.944570541E0,1.866401732E-1
6.998156202E0,-1.339980662E-1,9.934999466E0,1.866401732E-1
7.007842140E0,-1.339980662E-1,9.939785004E0,1.962114573E-1
7.017528286E0,-1.339980662E-1,9.911071777E0,1.866401732E-1
7.027213859E0,-1.292124242E-1,9.944570541E0,1.770688742E-1
7.036898702E0,-1.148554832E-1,9.939785004E0,1.770688742E-1
7.046584744E0,-1.387837082E-1,9.939785004E0,1.866401732E-1
7.056271723E0,-1.339980662E-1,9.930213928E0,1.770688742E-1
7.065957869E0,-1.339980662E-1,9.934999466E0,1.866401732E-1
7.075642817E0,-1.244267747E-1,9.920642853E0,1.914258152E-1
7.085327973E0,-1.148554832E-1,9.925428391E0,1.914258152E-1
7.095012921E0,-1.196411327E-1,9.906285286E0,1.770688742E-1
7.104697609E0,-1.196411327E-1,9.934999466E0,1.770688742E-1
7.114382869E0,-1.196411327E-1,9.930213928E0,1.914258152E-1
7.124068129E0,-1.052841991E-1,9.915857315E0,1.962114573E-1
7.133752348E0,-1.292124242E-1,9.925428391E0,1.962114573E-1
7.143437296E0,-1.244267747E-1,9.911071777E0,1.866401732E-1
7.153121775E0,-1.196411327E-1,9.939785004E0,1.818545163E-1
7.162806723E0,-1.292124242E-1,9.925428391E0,1.914258152E-1
7.172491098E0,-1.196411327E-1,9.939785004E0,1.914258152E-1
7.182177869E0,-1.292124242E-1,9.920642853E0,1.962114573E-1
7.191862609E0,-1.339980662E-1,9.930213928E0,1.866401732E-1
7.201547296E0,-1.244267747E-1,9.915857315E0,1.770688742E-1
7.211230734E0,-1.387837082E-1,9.930213928E0,1.818545163E-1
7.220914223E0,-1.244267747E-1,9.920642853E0,1.962114573E-1
7.230599275E0,-1.244267747E-1,9.934999466E0,1.770688742E-1
7.240284015E0,-1.196411327E-1,9.934999466E0,1.770688742E-1
7.249970004E0,-1.244267747E-1,9.934999466E0,1.722832322E-1
7.259655786E0,-1.339980662E-1,9.930213928E0,1.722832322E-1
7.269341359E0,-1.148554832E-1,9.930213928E0,1.914258152E-1
7.279027921E0,-1.196411327E-1,9.925428391E0,1.914258152E-1
7.288714067E0,-1.196411327E-1,9.925428391E0,1.770688742E-1
7.298399692E0,-1.244267747E-1,9.939785004E0,1.962114573E-1
7.308085317E0,-1.196411327E-1,9.925428391E0,1.962114573E-1
7.317772088E0,-1.148554832E-1,9.939785004E0,1.962114573E-1
7.327457973E0,-1.244267747E-1,9.930213928E0,1.866401732E-1
7.337143702E0,-1.387837082E-1,9.930213928E0,1.818545163E-1
7.346828546E0,-1.148554832E-1,9.915857315E0,1.962114573E-1
7.356513702E0,-1.244267747E-1,9.925428391E0,1.818545163E-1
7.366198129E0,-1.148554832E-1,9.934999466E0,1.818545163E-1
7.375883494E0,-1.196411327E-1,9.925428391E0,1.818545163E-1
7.385567817E0,-1.148554832E-1,9.939785004E0,1.914258152E-1
7.395253650E0,-1.196411327E-1,9.949356079E0,1.866401732E-1
7.404939431E0,-1.339980662E-1,9.920642853E0,1.818545163E-1
7.414623963E0,-1.244267747E-1,9.925428391E0,1.818545163E-1
7.424308286E0,-1.196411327E-1,9.915857315E0,2.009970993E-1
7.433992921E0,-1.339980662E-1,9.920642853E0,2.009970993E-1
7.443678598E0,-1.244267747E-1,9.930213928E0,1.914258152E-1
7.453363181E0,-1.196411327E-1,9.925428391E0,1.962114573E-1
7.463049171E0,-1.196411327E-1,9.934999466E0,1.914258152E-1
7.472733598E0,-1.100698411E-1,9.920642853E0,1.818545163E-1
7.482417765E0,-1.244267747E-1,9.920642853E0,1.914258152E-1
7.492102713E0,-1.148554832E-1,9.934999466E0,1.818545163E-1
7.501786827E0,-1.339980662E-1,9.934999466E0,1.818545163E-1
7.511470421E0,-1.339980662E-1,9.944570541E0,1.818545163E-1
7.521154588E0,-1.244267747E-1,9.925428391E0,1.914258152E-1
7.530838806E0,-1.244267747E-1,9.930213928E0,1.818545163E-1
7.540523181E0,-1.100698411E-1,9.920642853E0,1.818545163E-1
7.550207400E0,-1.244267747E-1,9.934999466E0,1.818545163E-1
7.559893754E0,-1.292124242E-1,9.930213928E0,1.770688742E-1
7.569578286E0,-1.435693651E-1,9.944570541E0,1.818545163E-1
7.579261984E0,-1.196411327E-1,9.934999466E0,1.866401732E-1
7.588946827E0,-1.339980662E-1,9.944570541E0,1.818545163E-1
7.598631567E0,-1.148554832E-1,9.934999466E0,1.866401732E-1
7.608316515E0,-1.387837082E-1,9.930213928E0,1.914258152E-1
7.618002192E0,-1.244267747E-1,9.920642853E0,1.914258152E-1
7.627687036E0,-1.292124242E-1,9.925428391E0,1.818545163E-1
7.637371879E0,-1.196411327E-1,9.930213928E0,1.818545163E-1
7.647056463E0,-1.148554832E-1,9.925428391E0,2.009970993E-1
7.656740317E0,-1.244267747E-1,9.930213928E0,1.962114573E-1
7.666425734E0,-1.052841991E-1,9.925428391E0,1.818545163E-1
7.676110369E0,-1.148554832E-1,9.934999466E0,1.866401732E-1
7.685794848E0,-1.292124242E-1,9.930213928E0,1.866401732E-1
7.695477921E0,-1.196411327E-1,9.930213928E0,1.866401732E-1
7.705162452E0,-1.244267747E-1,9.934999466E0,1.770688742E-1
7.714845942E0,-1.100698411E-1,9.925428391E0,1.914258152E-1
7.724530004E0,-1.100698411E-1,9.930213928E0,1.866401732E-1
7.734214536E0,-1.292124242E-1,9.930213928E0,1.962114573E-1
7.743898025E0,-1.148554832E-1,9.920642853E0,1.866401732E-1
7.753583234E0,-1.196411327E-1,9.930213928E0,1.866401732E-1
7.763266984E0,-1.100698411E-1,9.925428391E0,1.770688742E-1
7.772951879E0,-1.196411327E-1,9.930213928E0,1.818545163E-1
7.782635056E0,-1.292124242E-1,9.930213928E0,1.962114573E-1
7.792317400E0,-1.100698411E-1,9.934999466E0,1.866401732E-1
7.802001046E0,-1.292124242E-1,9.930213928E0,1.866401732E-1
7.811683129E0,-1.196411327E-1,9.920642853E0,1.866401732E-1
7.821366619E0,-1.244267747E-1,9.925428391E0,1.722832322E-1
7.831051306E0,-1.196411327E-1,9.925428391E0,1.770688742E-1
7.840734536E0,-1.244267747E-1,9.934999466E0,1.818545163E-1
7.850418963E0,-1.292124242E-1,9.939785004E0,1.866401732E-1
7.860103650E0,-1.148554832E-1,9.915857315E0,1.914258152E-1
7.869787556E0,-1.244267747E-1,9.934999466E0,1.818545163E-1
7.879473181E0,-1.292124242E-1,9.934999466E0,1.962114573E-1
7.889158338E0,-1.196411327E-1,9.930213928E0,1.914258152E-1
7.898843702E0,-1.244267747E-1,9.930213928E0,1.818545163E-1
7.908528286E0,-1.148554832E-1,9.930213928E0,1.818545163E-1
7.918212973E0,-1.244267747E-1,9.930213928E0,1.962114573E-1
7.927897400E0,-1.148554832E-1,9.925428391E0,1.914258152E-1
7.937581879E0,-1.244267747E-1,9.930213928E0,1.962114573E-1
7.947265577E0,-1.292124242E-1,9.930213928E0,1.818545163E-1
7.956949640E0,-1.148554832E-1,9.939785004E0,1.914258152E-1
7.966634327E0,-1.196411327E-1,9.906285286E0,1.914258152E-1
7.976320004E0,-1.483550072E-1,9.930213928E0,2.009970993E-1
7.986005942E0,-1.292124242E-1,9.925428391E0,1.770688742E-1
7.995690369E0,-1.244267747E-1,9.934999466E0,1.914258152E-1
8.005375473E0,-1.196411327E-1,9.920642853E0,1.914258152E-1
8.015061775E0,-1.292124242E-1,9.939785004E0,1.818545163E-1
8.024745890E0,-1.339980662E-1,9.925428391E0,1.914258152E-1
8.034433025E0,-1.148554832E-1,9.934999466E0,1.866401732E-1
8.044121202E0,-1.196411327E-1,9.925428391E0,1.914258152E-1
8.053805786E0,-1.196411327E-1,9.939785004E0,1.962114573E-1
8.063492140E0,-1.244267747E-1,9.944570541E0,1.674975902E-1
8.073177088E0,-1.244267747E-1,9.934999466E0,1.962114573E-1
8.082863806E0,-1.148554832E-1,9.925428391E0,1.866401732E-1
8.092550890E0,-1.244267747E-1,9.925428391E0,1.962114573E-1
8.102238077E0,-1.435693651E-1,9.939785004E0,1.866401732E-1
8.111924275E0,-1.196411327E-1,9.934999466E0,1.818545163E-1
8.121611046E0,-1.244267747E-1,9.925428391E0,1.962114573E-1
8.131296254E0,-1.244267747E-1,9.930213928E0,1.914258152E-1
8.140984067E0,-1.148554832E-1,9.930213928E0,1.914258152E-1
8.150670838E0,-1.196411327E-1,9.934999466E0,1.914258152E-1
8.160355994E0,-1.339980662E-1,9.934999466E0,1.866401732E-1
8.170041619E0,-1.148554832E-1,9.911071777E0,1.866401732E-1
8.179727817E0,-1.196411327E-1,9.920642853E0,1.866401732E-1
8.189413286E0,-1.100698411E-1,9.920642853E0,1.674975902E-1
8.199098442E0,-1.148554832E-1,9.920642853E0,1.866401732E-1
8.208783546E0,-1.435693651E-1,9.930213928E0,1.914258152E-1
8.218467661E0,-1.387837082E-1,9.949356079E0,1.818545163E-1
8.228151984E0,-1.196411327E-1,9.920642853E0,1.818545163E-1
8.237836567E0,-1.292124242E-1,9.930213928E0,1.722832322E-1
8.247521098E0,-1.148554832E-1,9.930213928E0,1.962114573E-1
8.257208077E0,-1.292124242E-1,9.934999466E0,1.866401732E-1
8.266893442E0,-1.196411327E-1,9.930213928E0,1.818545163E-1
8.276578598E0,-1.292124242E-1,9.939785004E0,1.866401732E-1
8.286264379E0,-1.387837082E-1,9.915857315E0,1.962114573E-1
8.295949952E0,-1.292124242E-1,9.934999466E0,1.962114573E-1
8.305635890E0,-1.339980662E-1,9.920642853E0,1.962114573E-1
8.315320734E0,-1.292124242E-1,9.934999466E0,1.722832322E-1
8.325006827E0,-1.244267747E-1,9.925428391E0,1.770688742E-1
8.334692556E0,-1.339980662E-1,9.930213928E0,1.962114573E-1
8.344376463E0,-1.339980662E-1,9.939785004E0,1.770688742E-1
8.354062244E0,-1.292124242E-1,9.930213928E0,1.866401732E-1
8.363747192E0,-1.196411327E-1,9.934999466E0,1.818545163E-1
8.373432869E0,-1.196411327E-1,9.939785004E0,1.674975902E-1
8.383118806E0,-1.100698411E-1,9.920642853E0,1.866401732E-1
8.392804067E0,-1.292124242E-1,9.906285286E0,1.770688742E-1
8.402489327E0,-1.292124242E-1,9.934999466E0,1.866401732E-1
8.412175161E0,-1.196411327E-1,9.949356079E0,1.722832322E-1
8.421861879E0,-1.339980662E-1,9.934999466E0,1.818545163E-1
8.431546775E0,-1.292124242E-1,9.934999466E0,1.770688742E-1
8.441232765E0,-1.292124242E-1,9.925428391E0,1.914258152E-1
8.450917661E0,-1.148554832E-1,9.930213928E0,1.818545163E-1
8.460603442E0,-1.196411327E-1,9.925428391E0,1.962114573E-1
8.470290629E0,-1.292124242E-1,9.925428391E0,1.914258152E-1
8.479974692E0,-1.148554832E-1,9.939785004E0,1.914258152E-1
8.489660838E0,-1.196411327E-1,9.925428391E0,1.962114573E-1
8.499346567E0,-1.292124242E-1,9.915857315E0,1.962114573E-1
8.509032556E0,-1.244267747E-1,9.925428391E0,1.818545163E-1
8.518716827E0,-1.292124242E-1,9.930213928E0,1.914258152E-1
8.528402556E0,-1.196411327E-1,9.934999466E0,1.866401732E-1
8.538088546E0,-1.148554832E-1,9.939785004E0,1.914258152E-1
8.547774327E0,-1.196411327E-1,9.944570541E0,1.914258152E-1
8.557458702E0,-1.292124242E-1,9.930213928E0,1.914258152E-1
8.567144536E0,-1.148554832E-1,9.906285286E0,1.866401732E-1
8.576829588E0,-1.196411327E-1,9.920642853E0,1.770688742E-1
8.586514692E0,-1.196411327E-1,9.925428391E0,1.818545163E-1
8.596198598E0,-1.148554832E-1,9.930213928E0,1.962114573E-1
8.605883598E0,-1.148554832E-1,9.930213928E0,1.818545163E-1
8.615567869E0,-1.339980662E-1,9.934999466E0,1.674975902E-1
8.625253911E0,-1.100698411E-1,9.934999466E0,1.914258152E-1
8.634940213E0,-1.196411327E-1,9.934999466E0,1.770688742E-1
8.644626150E0,-1.244267747E-1,9.925428391E0,1.866401732E-1
8.654310994E0,-1.244267747E-1,9.930213928E0,1.962114573E-1
8.663995421E0,-1.244267747E-1,9.930213928E0,1.914258152E-1
8.673680629E0,-1.339980662E-1,9.930213928E0,1.962114573E-1
8.683364640E0,-1.244267747E-1,9.925428391E0,1.914258152E-1
8.693049536E0,-1.148554832E-1,9.939785004E0,1.818545163E-1
8.702734119E0,-1.196411327E-1,9.939785004E0,1.866401732E-1
8.712418442E0,-1.100698411E-1,9.930213928E0,1.914258152E-1
8.722102869E0,-1.196411327E-1,9.915857315E0,1.866401732E-1
8.731786150E0,-1.196411327E-1,9.934999466E0,1.866401732E-1
8.741471046E0,-1.148554832E-1,9.930213928E0,1.818545163E-1
8.751156411E0,-1.244267747E-1,9.944570541E0,1.818545163E-1
8.760841098E0,-1.339980662E-1,9.944570541E0,1.818545163E-1
8.770526515E0,-1.244267747E-1,9.930213928E0,1.962114573E-1
8.780211775E0,-1.196411327E-1,9.944570541E0,1.962114573E-1
8.789897973E0,-1.339980662E-1,9.930213928E0,1.818545163E-1
8.799584171E0,-1.292124242E-1,9.934999466E0,1.818545163E-1
8.809269848E0,-1.387837082E-1,9.930213928E0,1.818545163E-1
8.818954171E0,-1.292124242E-1,9.949356079E0,1.818545163E-1
8.828640421E0,-1.387837082E-1,9.920642853E0,1.962114573E-1
8.838325056E0,-1.244267747E-1,9.930213928E0,1.770688742E-1
8.848008702E0,-1.292124242E-1,9.930213928E0,1.722832322E-1
8.857693181E0,-1.244267747E-1,9.939785004E0,1.866401732E-1
8.867379171E0,-1.196411327E-1,9.939785004E0,1.866401732E-1
8.877065213E0,-1.292124242E-1,9.920642853E0,1.962114573E-1
8.886751931E0,-1.148554832E-1,9.920642853E0,1.914258152E-1
8.896437400E0,-1.292124242E-1,9.934999466E0,1.770688742E-1
8.906122973E0,-1.244267747E-1,9.934999466E0,1.866401732E-1
8.915808806E0,-1.244267747E-1,9.930213928E0,1.866401732E-1
8.925495317E0,-1.196411327E-1,9.930213928E0,1.866401732E-1
8.935181619E0,-1.292124242E-1,9.930213928E0,1.866401732E-1
8.944867661E0,-1.244267747E-1,9.920642853E0,1.914258152E-1
8.954553390E0,-1.148554832E-1,9.920642853E0,1.866401732E-1
8.964238494E0,-1.244267747E-1,9.925428391E0,1.722832322E-1
8.973922609E0,-1.292124242E-1,9.920642853E0,1.866401732E-1
8.983608494E0,-1.244267747E-1,9.915857315E0,1.866401732E-1
8.993294744E0,-1.339980662E-1,9.920642853E0,1.914258152E-1
9.002979327E0,-1.196411327E-1,9.934999466E0,1.770688742E-1
9.012665265E0,-1.292124242E-1,9.925428391E0,1.866401732E-1
9.022350994E0,-1.244267747E-1,9.930213928E0,1.866401732E-1
9.032034796E0,-1.244267747E-1,9.930213928E0,1.818545163E-1
9.041719952E0,-1.387837082E-1,9.934999466E0,1.914258152E-1
9.051404327E0,-1.196411327E-1,9.925428391E0,1.866401732E-1
9.061088129E0,-1.339980662E-1,9.925428391E0,1.818545163E-1
9.070773806E0,-1.148554832E-1,9.925428391E0,1.818545163E-1
9.080459484E0,-1.148554832E-1,9.920642853E0,1.818545163E-1
9.090143598E0,-1.244267747E-1,9.934999466E0,1.866401732E-1
9.099827713E0,-1.244267747E-1,9.939785004E0,1.866401732E-1
9.109512244E0,-1.196411327E-1,9.939785004E0,1.818545163E-1
9.119196984E0,-1.100698411E-1,9.915857315E0,1.866401732E-1
9.128884067E0,-1.244267747E-1,9.939785004E0,1.914258152E-1
9.138569640E0,-1.339980662E-1,9.944570541E0,1.818545163E-1
9.148255838E0,-1.052841991E-1,9.939785004E0,1.722832322E-1
9.157941984E0,-1.387837082E-1,9.925428391E0,1.579262912E-1
9.167629015E0,-1.339980662E-1,9.925428391E0,1.770688742E-1
9.177315577E0,-1.148554832E-1,9.920642853E0,1.770688742E-1
9.187001306E0,-1.196411327E-1,9.939785004E0,1.866401732E-1
9.196686046E0,-1.244267747E-1,9.920642853E0,1.866401732E-1
9.206371723E0,-1.292124242E-1,9.930213928E0,1.770688742E-1
9.216055265E0,-1.292124242E-1,9.920642853E0,1.914258152E-1
9.225740473E0,-1.339980662E-1,9.930213928E0,1.770688742E-1
9.235424744E0,-1.244267747E-1,9.934999466E0,1.722832322E-1
9.245109848E0,-1.148554832E-1,9.925428391E0,1.914258152E-1
9.254795942E0,-1.292124242E-1,9.925428391E0,1.627119333E-1
9.264481775E0,-1.100698411E-1,9.915857315E0,1.866401732E-1
9.274168546E0,-1.244267747E-1,9.906285286E0,1.914258152E-1
9.283854171E0,-1.196411327E-1,9.925428391E0,1.722832322E-1
9.293539692E0,-1.435693651E-1,9.944570541E0,1.818545163E-1
9.303226827E0,-1.292124242E-1,9.934999466E0,1.818545163E-1
9.312912192E0,-1.292124242E-1,9.930213928E0,1.866401732E-1
9.322597817E0,-1.244267747E-1,9.930213928E0,1.770688742E-1
9.332284484E0,-1.435693651E-1,9.925428391E0,1.818545163E-1
9.341969327E0,-1.292124242E-1,9.920642853E0,1.818545163E-1
9.351653442E0,-1.196411327E-1,9.939785004E0,1.770688742E-1
9.361339223E0,-1.196411327E-1,9.934999466E0,1.674975902E-1
9.371025786E0,-1.244267747E-1,9.925428391E0,1.914258152E-1
9.380712504E0,-1.196411327E-1,9.925428391E0,1.866401732E-1
9.390400161E0,-1.292124242E-1,9.934999466E0,1.866401732E-1
9.400085213E0,-1.292124242E-1,9.930213928E0,1.674975902E-1
9.409771254E0,-1.244267747E-1,9.925428391E0,1.818545163E-1
9.419456254E0,-1.339980662E-1,9.925428391E0,1.770688742E-1
9.429142504E0,-1.244267747E-1,9.939785004E0,1.770688742E-1
9.438828650E0,-1.244267747E-1,9.930213928E0,1.531406492E-1
9.448514484E0,-1.292124242E-1,9.925428391E0,1.818545163E-1
9.458200109E0,-1.100698411E-1,9.920642853E0,1.818545163E-1
9.467885994E0,-1.339980662E-1,9.934999466E0,1.818545163E-1
9.477571879E0,-1.196411327E-1,9.920642853E0,1.674975902E-1
9.487256984E0,-1.339980662E-1,9.939785004E0,1.722832322E-1
9.496942661E0,-1.148554832E-1,9.930213928E0,1.770688742E-1
9.506628129E0,-1.148554832E-1,9.930213928E0,1.674975902E-1
9.516313546E0,-1.196411327E-1,9.930213928E0,1.866401732E-1
9.525999484E0,-1.339980662E-1,9.934999466E0,1.818545163E-1
9.535685004E0,-1.531406492E-1,9.934999466E0,1.579262912E-1
9.545370473E0,-1.148554832E-1,9.920642853E0,1.627119333E-1
9.555056775E0,-1.148554832E-1,9.925428391E0,1.722832322E-1
9.564741411E0,-1.148554832E-1,9.934999466E0,1.962114573E-1
9.574426098E0,-1.244267747E-1,9.925428391E0,1.818545163E-1
9.584111411E0,-1.148554832E-1,9.934999466E0,1.962114573E-1
9.593796359E0,-1.148554832E-1,9.944570541E0,1.818545163E-1
9.603482348E0,-1.339980662E-1,9.915857315E0,2.009970993E-1
9.613168234E0,-1.196411327E-1,9.925428391E0,1.770688742E-1
9.622854796E0,-1.292124242E-1,9.920642853E0,1.866401732E-1
9.632538911E0,-1.196411327E-1,9.930213928E0,1.866401732E-1
9.642223442E0,-1.339980662E-1,9.939785004E0,1.914258152E-1
9.651909588E0,-1.244267747E-1,9.925428391E0,1.770688742E-1
9.661595786E0,-1.244267747E-1,9.925428391E0,1.818545163E-1
9.671281775E0,-1.100698411E-1,9.925428391E0,1.962114573E-1
9.680966254E0,-1.196411327E-1,9.930213928E0,1.962114573E-1
9.690651515E0,-1.387837082E-1,9.925428391E0,1.962114573E-1
9.700337192E0,-1.148554832E-1,9.925428391E0,1.866401732E-1
9.710023390E0,-1.339980662E-1,9.920642853E0,1.818545163E-1
9.719708546E0,-1.148554832E-1,9.930213928E0,1.770688742E-1
9.729393546E0,-1.244267747E-1,9.915857315E0,1.579262912E-1
9.739078598E0,-1.004985496E-1,9.934999466E0,1.627119333E-1
9.748764379E0,-1.052841991E-1,9.939785004E0,1.770688742E-1
9.758449952E0,-1.196411327E-1,9.911071777E0,1.818545163E-1
9.768135838E0,-1.292124242E-1,9.920642853E0,1.914258152E-1
9.777820213E0,-1.148554832E-1,9.934999466E0,1.818545163E-1
9.787506723E0,-1.244267747E-1,9.915857315E0,2.201396823E-1
9.797191567E0,-1.292124242E-1,9.934999466E0,1.722832322E-1
9.806878025E0,-1.196411327E-1,9.930213928E0,1.674975902E-1
9.816562817E0,-1.244267747E-1,9.920642853E0,1.962114573E-1
9.826247556E0,-1.100698411E-1,9.915857315E0,1.244267747E-1
9.835933129E0,-1.244267747E-1,9.930213928E0,1.722832322E-1
9.845618494E0,-1.292124242E-1,9.934999466E0,2.057827413E-1
9.855303338E0,-1.148554832E-1,9.930213928E0,1.770688742E-1
9.864987556E0,-1.339980662E-1,9.925428391E0,1.770688742E-1
9.874672296E0,-1.387837082E-1,9.944570541E0,1.818545163E-1
9.884357192E0,-1.244267747E-1,9.915857315E0,1.770688742E-1
9.894042400E0,-1.196411327E-1,9.944570541E0,1.914258152E-1
9.903727348E0,-1.292124242E-1,9.934999466E0,1.722832322E-1
9.913414223E0,-1.292124242E-1,9.920642853E0,1.914258152E-1
9.923098390E0,-1.292124242E-1,9.944570541E0,2.009970993E-1
9.932783963E0,-1.244267747E-1,9.934999466E0,1.674975902E-1
9.942470161E0,-1.387837082E-1,9.934999466E0,1.914258152E-1
9.952156150E0,-1.292124242E-1,9.930213928E0,1.818545163E-1
9.961841775E0,-1.244267747E-1,9.930213928E0,1.866401732E-1
9.971526879E0,-1.292124242E-1,9.925428391E0,1.722832322E-1
9.981213963E0,-1.148554832E-1,9.920642853E0,1.722832322E-1
9.990898702E0,-1.148554832E-1,9.925428391E0,1.722832322E-1
1.000058381E1,-1.292124242E-1,9.930213928E0,1.722832322E-1
1.001026813E1,-1.148554832E-1,9.930213928E0,1.674975902E-1
1.001995396E1,-1.196411327E-1,9.944570541E0,1.818545163E-1
1.002963870E1,-1.100698411E-1,9.939785004E0,1.914258152E-1
1.003932271E1,-1.292124242E-1,9.934999466E0,1.866401732E-1
1.004900844E1,-1.004985496E-1,9.920642853E0,2.009970993E-1
1.005869313E1,-1.339980662E-1,9.930213928E0,2.009970993E-1
1.006837724E1,-1.148554832E-1,9.925428391E0,1.866401732E-1
1.007806355E1,-1.339980662E-1,9.925428391E0,1.770688742E-1
1.008775006E1,-1.435693651E-1,9.930213928E0,1.914258152E-1
1.009743657E1,-1.339980662E-1,9.911071777E0,1.962114573E-1
1.010712188E1,-1.244267747E-1,9.930213928E0,1.818545163E-1
1.011680745E1,-1.148554832E-1,9.934999466E0,1.722832322E-1
1.012649204E1,-1.196411327E-1,9.939785004E0,1.722832322E-1
1.013617693E1,-1.339980662E-1,9.930213928E0,1.770688742E-1
1.014586250E1,-1.387837082E-1,9.934999466E0,1.962114573E-1
1.015554844E1,-1.244267747E-1,9.939785004E0,1.770688742E-1
1.016523552E1,-1.339980662E-1,9.925428391E0,1.818545163E-1
1.017492094E1,-1.196411327E-1,9.925428391E0,1.818545163E-1
1.018460636E1,-1.196411327E-1,9.934999466E0,1.770688742E-1
1.019429183E1,-1.387837082E-1,9.934999466E0,1.818545163E-1
1.020397599E1,-1.292124242E-1,9.944570541E0,1.818545163E-1
1.021366152E1,-1.387837082E-1,9.925428391E0,1.914258152E-1
1.022334735E1,-1.387837082E-1,9.939785004E0,1.818545163E-1
1.023303230E1,-1.292124242E-1,9.939785004E0,1.722832322E-1
1.024271844E1,-1.339980662E-1,9.920642853E0,1.674975902E-1
1.025240516E1,-1.196411327E-1,9.949356079E0,1.674975902E-1
1.026209068E1,-1.244267747E-1,9.930213928E0,1.627119333E-1
1.027177771E1,-1.292124242E-1,9.930213928E0,1.770688742E-1
1.028146417E1,-1.339980662E-1,9.944570541E0,1.770688742E-1
1.029115136E1,-1.196411327E-1,9.939785004E0,1.722832322E-1
1.030083709E1,-1.244267747E-1,9.944570541E0,1.914258152E-1
1.031052219E1,-1.196411327E-1,9.930213928E0,1.914258152E-1
1.032020907E1,-1.292124242E-1,9.920642853E0,1.770688742E-1
1.032989433E1,-1.435693651E-1,9.925428391E0,1.770688742E-1
1.033958032E1,-1.292124242E-1,9.925428391E0,1.674975902E-1
1.034926573E1,-1.004985496E-1,9.930213928E0,1.722832322E-1
1.035895084E1,-1.244267747E-1,9.934999466E0,1.770688742E-1
1.036863610E1,-1.292124242E-1,9.934999466E0,1.818545163E-1
1.037832209E1,-1.387837082E-1,9.934999466E0,1.722832322E-1
1.038800766E1,-1.196411327E-1,9.934999466E0,1.674975902E-1
1.039769339E1,-1.196411327E-1,9.930213928E0,1.770688742E-1
1.040737834E1,-1.244267747E-1,9.930213928E0,1.818545163E-1
1.041706433E1,-1.244267747E-1,9.939785004E0,1.722832322E-1
1.042675157E1,-1.435693651E-1,9.915857315E0,1.722832322E-1
1.043643881E1,-1.196411327E-1,9.934999466E0,1.674975902E-1
1.044612448E1,-1.292124242E-1,9.920642853E0,1.722832322E-1
1.045580896E1,-1.292124242E-1,9.925428391E0,1.722832322E-1
1.046549521E1,-1.244267747E-1,9.930213928E0,1.818545163E-1
1.047518167E1,-1.244267747E-1,9.944570541E0,1.866401732E-1
1.048486802E1,-1.339980662E-1,9.920642853E0,1.866401732E-1
1.049455422E1,-1.244267747E-1,9.930213928E0,1.770688742E-1
1.050423938E1,-1.148554832E-1,9.939785004E0,1.722832322E-1
1.051392558E1,-1.148554832E-1,9.939785004E0,1.818545163E-1
1.052361193E1,-1.244267747E-1,9.930213928E0,1.818545163E-1
1.053329750E1,-1.292124242E-1,9.930213928E0,1.818545163E-1
1.054298365E1,-1.196411327E-1,9.944570541E0,1.722832322E-1
1.055267006E1,-1.339980662E-1,9.920642853E0,1.818545163E-1
1.056235678E1,-1.196411327E-1,9.930213928E0,1.770688742E-1
1.057204240E1,-1.244267747E-1,9.934999466E0,1.770688742E-1
1.058172823E1,-1.387837082E-1,9.920642853E0,1.962114573E-1
1.059141344E1,-1.148554832E-1,9.925428391E0,1.914258152E-1
1.060110006E1,-1.339980662E-1,9.920642853E0,1.770688742E-1
1.061078537E1,-1.292124242E-1,9.930213928E0,1.770688742E-1
1.062047026E1,-1.196411327E-1,9.949356079E0,1.818545163E-1
1.063015693E1,-1.244267747E-1,9.930213928E0,1.770688742E-1
1.063984282E1,-1.244267747E-1,9.934999466E0,1.770688742E-1
1.064952823E1,-1.244267747E-1,9.920642853E0,1.674975902E-1
1.065921303E1,-1.196411327E-1,9.930213928E0,1.818545163E-1
1.066890027E1,-1.196411327E-1,9.944570541E0,1.818545163E-1
1.067858552E1,-1.292124242E-1,9.934999466E0,1.770688742E-1
1.068827115E1,-1.292124242E-1,9.939785004E0,1.674975902E-1
1.069795735E1,-1.052841991E-1,9.930213928E0,1.818545163E-1
1.070764329E1,-1.196411327E-1,9.934999466E0,1.818545163E-1
1.071732875E1,-1.148554832E-1,9.934999466E0,1.818545163E-1
1.072701480E1,-1.196411327E-1,9.925428391E0,1.770688742E-1
1.073670084E1,-1.292124242E-1,9.939785004E0,1.722832322E-1
1.074638750E1,-1.244267747E-1,9.930213928E0,1.722832322E-1
1.075607454E1,-1.387837082E-1,9.939785004E0,1.818545163E-1
1.076576000E1,-1.100698411E-1,9.934999466E0,1.818545163E-1
1.077544735E1,-1.339980662E-1,9.944570541E0,1.818545163E-1
1.078513349E1,-1.244267747E-1,9.944570541E0,1.770688742E-1
1.079482011E1,-1.196411327E-1,9.934999466E0,1.818545163E-1
1.080450625E1,-1.292124242E-1,9.925428391E0,1.770688742E-1
1.081419256E1,-1.244267747E-1,9.934999466E0,1.818545163E-1
1.082387922E1,-1.292124242E-1,9.911071777E0,1.722832322E-1
1.083356605E1,-1.292124242E-1,9.925428391E0,1.818545163E-1
1.084325178E1,-1.292124242E-1,9.930213928E0,1.818545163E-1
1.085293730E1,-1.196411327E-1,9.930213928E0,1.770688742E-1
1.086262240E1,-1.148554832E-1,9.949356079E0,1.818545163E-1
1.087230886E1,-1.244267747E-1,9.944570541E0,1.770688742E-1
1.088199381E1,-1.244267747E-1,9.925428391E0,1.770688742E-1
1.089167875E1,-1.292124242E-1,9.925428391E0,1.770688742E-1
1.090136381E1,-1.244267747E-1,9.939785004E0,1.818545163E-1
1.091104870E1,-1.196411327E-1,9.934999466E0,1.770688742E-1
1.092073584E1,-1.292124242E-1,9.934999466E0,1.818545163E-1
1.093042339E1,-1.292124242E-1,9.939785004E0,1.770688742E-1
1.094010839E1,-1.292124242E-1,9.920642853E0,1.818545163E-1
1.094979344E1,-1.292124242E-1,9.934999466E0,1.818545163E-1
1.095947954E1,-1.196411327E-1,9.934999466E0,1.770688742E-1
1.096916568E1,-1.244267747E-1,9.939785004E0,1.866401732E-1
1.097885063E1,-1.148554832E-1,9.925428391E0,1.770688742E-1
1.098853605E1,-1.244267747E-1,9.920642853E0,1.818545163E-1
1.099822230E1,-1.196411327E-1,9.925428391E0,1.866401732E-1
1.100790797E1,-1.244267747E-1,9.930213928E0,1.866401732E-1
1.101759334E1,-1.339980662E-1,9.934999466E0,1.770688742E-1
1.102727943E1,-1.339980662E-1,9.930213928E0,1.818545163E-1
1.103696521E1,-1.483550072E-1,9.930213928E0,1.722832322E-1
1.104665042E1,-1.004985496E-1,9.934999466E0,1.818545163E-1
1.105633667E1,-1.339980662E-1,9.915857315E0,1.818545163E-1
1.106602224E1,-1.196411327E-1,9.930213928E0,1.722832322E-1
1.107570782E1,-1.148554832E-1,9.930213928E0,1.770688742E-1
1.108539433E1,-1.148554832E-1,9.925428391E0,1.722832322E-1
1.109507943E1,-1.196411327E-1,9.930213928E0,1.914258152E-1
1.110476485E1,-1.244267747E-1,9.930213928E0,1.770688742E-1
1.111445178E1,-1.196411327E-1,9.915857315E0,1.818545163E-1
1.112413719E1,-1.052841991E-1,9.925428391E0,1.674975902E-1
1.113382256E1,-1.292124242E-1,9.939785004E0,1.722832322E-1
1.114350709E1,-1.244267747E-1,9.934999466E0,1.818545163E-1
1.115319115E1,-1.196411327E-1,9.939785004E0,1.674975902E-1
1.116287709E1,-1.052841991E-1,9.920642853E0,2.009970993E-1
1.117256276E1,-1.292124242E-1,9.934999466E0,1.914258152E-1
1.118224844E1,-1.292124242E-1,9.944570541E0,1.674975902E-1
1.119193433E1,-1.292124242E-1,9.939785004E0,1.674975902E-1
1.120162204E1,-1.387837082E-1,9.934999466E0,1.818545163E-1
1.121130678E1,-1.196411327E-1,9.915857315E0,1.962114573E-1
1.122099230E1,-1.387837082E-1,9.934999466E0,1.818545163E-1
1.123067766E1,-1.244267747E-1,9.925428391E0,1.866401732E-1
1.124036214E1,-1.292124242E-1,9.915857315E0,1.770688742E-1
1.125004818E1,-1.244267747E-1,9.925428391E0,1.914258152E-1
1.125973334E1,-1.196411327E-1,9.925428391E0,1.627119333E-1
1.126941922E1,-1.292124242E-1,9.934999466E0,1.866401732E-1
1.127910485E1,-1.339980662E-1,9.925428391E0,1.722832322E-1
1.128879032E1,-1.196411327E-1,9.925428391E0,1.722832322E-1
1.129847740E1,-1.148554832E-1,9.925428391E0,1.914258152E-1
1.130816214E1,-1.100698411E-1,9.925428391E0,1.866401732E-1
1.131784667E1,-1.196411327E-1,9.930213928E0,1.674975902E-1
1.132753146E1,-1.244267747E-1,9.939785004E0,1.866401732E-1
1.133721667E1,-1.292124242E-1,9.934999466E0,1.818545163E-1
1.134690224E1,-1.339980662E-1,9.920642853E0,1.866401732E-1
1.135658761E1,-1.148554832E-1,9.925428391E0,1.818545163E-1
1.136627428E1,-1.196411327E-1,9.934999466E0,1.962114573E-1
1.137596027E1,-1.244267747E-1,9.925428391E0,1.866401732E-1
1.138564646E1,-1.196411327E-1,9.920642853E0,1.866401732E-1
1.139533245E1,-1.196411327E-1,9.930213928E0,1.770688742E-1
1.140501928E1,-1.244267747E-1,9.920642853E0,1.770688742E-1
1.141470542E1,-1.292124242E-1,9.934999466E0,1.722832322E-1
1.142439089E1,-1.339980662E-1,9.930213928E0,1.770688742E-1
1.143407594E1,-1.244267747E-1,9.934999466E0,1.818545163E-1
1.144376110E1,-1.292124242E-1,9.934999466E0,1.818545163E-1
1.145344589E1,-1.292124242E-1,9.939785004E0,1.914258152E-1
1.146313120E1,-1.339980662E-1,9.930213928E0,1.818545163E-1
1.147281553E1,-1.292124242E-1,9.920642853E0,1.818545163E-1
1.148250198E1,-1.196411327E-1,9.925428391E0,1.722832322E-1
1.149218667E1,-1.148554832E-1,9.930213928E0,1.770688742E-1
1.150187146E1,-1.148554832E-1,9.939785004E0,1.818545163E-1
1.151155620E1,-1.292124242E-1,9.934999466E0,1.818545163E-1
1.152124110E1,-1.339980662E-1,9.930213928E0,1.818545163E-1
1.153092870E1,-1.292124242E-1,9.930213928E0,1.866401732E-1
1.154061407E1,-1.244267747E-1,9.939785004E0,1.818545163E-1
1.155029985E1,-1.292124242E-1,9.939785004E0,1.674975902E-1
1.155998542E1,-1.100698411E-1,9.939785004E0,1.674975902E-1
1.156966974E1,-1.244267747E-1,9.911071777E0,1.770688742E-1
1.157935620E1,-1.148554832E-1,9.934999466E0,1.770688742E-1
1.158904256E1,-1.196411327E-1,9.934999466E0,1.722832322E-1
1.159872823E1,-1.004985496E-1,9.944570541E0,1.722832322E-1
1.160841323E1,-1.292124242E-1,9.911071777E0,1.674975902E-1
1.161809766E1,-1.244267747E-1,9.930213928E0,1.770688742E-1
1.162778198E1,-1.339980662E-1,9.925428391E0,1.818545163E-1
1.163746704E1,-1.148554832E-1,9.939785004E0,1.674975902E-1
1.164715287E1,-1.387837082E-1,9.934999466E0,1.914258152E-1
1.165683896E1,-1.339980662E-1,9.925428391E0,1.818545163E-1
1.166652412E1,-1.292124242E-1,9.920642853E0,1.818545163E-1
1.167621058E1,-1.244267747E-1,9.930213928E0,1.674975902E-1
1.168589678E1,-1.435693651E-1,9.915857315E0,1.674975902E-1
1.169558131E1,-1.196411327E-1,9.925428391E0,1.722832322E-1
1.170526750E1,-1.244267747E-1,9.930213928E0,1.722832322E-1
1.171495323E1,-1.148554832E-1,9.930213928E0,1.914258152E-1
1.172463928E1,-1.148554832E-1,9.930213928E0,1.866401732E-1
1.173432474E1,-1.196411327E-1,9.934999466E0,1.818545163E-1
1.174401073E1,-1.244267747E-1,9.934999466E0,1.674975902E-1
1.175369563E1,-1.244267747E-1,9.934999466E0,1.866401732E-1
1.176337980E1,-1.196411327E-1,9.934999466E0,1.818545163E-1
1.177306511E1,-1.196411327E-1,9.920642853E0,1.818545163E-1
1.178274964E1,-1.052841991E-1,9.920642853E0,1.914258152E-1
1.179243579E1,-1.483550072E-1,9.934999466E0,1.674975902E-1
1.180212105E1,-1.292124242E-1,9.930213928E0,1.818545163E-1
1.181180480E1,-1.244267747E-1,9.939785004E0,1.722832322E-1
1.182148974E1,-1.339980662E-1,9.930213928E0,1.818545163E-1
1.183117495E1,-1.339980662E-1,9.930213928E0,1.914258152E-1
1.184086026E1,-1.244267747E-1,9.925428391E0,1.866401732E-1
1.185054610E1,-1.148554832E-1,9.920642853E0,1.722832322E-1
1.186023204E1,-1.244267747E-1,9.930213928E0,1.770688742E-1
1.186991844E1,-1.196411327E-1,9.949356079E0,1.722832322E-1
1.187960526E1,-1.244267747E-1,9.954142570E0,1.722832322E-1
1.188929089E1,-1.435693651E-1,9.920642853E0,1.818545163E-1
1.189897563E1,-1.339980662E-1,9.930213928E0,1.674975902E-1
1.190865985E1,-1.196411327E-1,9.930213928E0,1.914258152E-1
1.191834511E1,-1.196411327E-1,9.920642853E0,1.770688742E-1
1.192802990E1,-1.100698411E-1,9.930213928E0,1.770688742E-1
1.193771527E1,-1.100698411E-1,9.930213928E0,1.818545163E-1
1.194740032E1,-1.244267747E-1,9.911071777E0,1.866401732E-1
1.195708693E1,-1.244267747E-1,9.920642853E0,1.962114573E-1
1.196677370E1,-1.292124242E-1,9.934999466E0,1.770688742E-1
1.197645865E1,-1.292124242E-1,9.925428391E0,1.818545163E-1
1.198614402E1,-1.196411327E-1,9.934999466E0,1.770688742E-1
1.199583047E1,-1.387837082E-1,9.939785004E0,1.722832322E-1
1.200551584E1,-1.148554832E-1,9.920642853E0,1.722832322E-1
1.201520183E1,-1.292124242E-1,9.939785004E0,1.674975902E-1
1.202488844E1,-1.052841991E-1,9.925428391E0,1.722832322E-1
1.203457547E1,-1.339980662E-1,9.920642853E0,1.722832322E-1
1.204426193E1,-1.435693651E-1,9.944570541E0,1.770688742E-1
1.205394709E1,-1.292124242E-1,9.934999466E0,1.818545163E-1
1.206363188E1,-1.196411327E-1,9.934999466E0,1.674975902E-1
1.207331813E1,-1.196411327E-1,9.920642853E0,1.674975902E-1
1.208300428E1,-1.292124242E-1,9.920642853E0,1.722832322E-1
1.209268959E1,-1.244267747E-1,9.915857315E0,1.866401732E-1
1.210237620E1,-1.148554832E-1,9.915857315E0,1.866401732E-1
1.211206115E1,-1.196411327E-1,9.939785004E0,1.818545163E-1
1.212174839E1,-1.244267747E-1,9.920642853E0,1.722832322E-1
1.213143542E1,-1.244267747E-1,9.925428391E0,1.866401732E-1
1.214112256E1,-1.387837082E-1,9.920642853E0,1.914258152E-1
1.215080834E1,-1.196411327E-1,9.934999466E0,1.674975902E-1
1.216049323E1,-1.052841991E-1,9.930213928E0,1.770688742E-1
1.217017902E1,-1.196411327E-1,9.930213928E0,1.722832322E-1
1.217986422E1,-1.244267747E-1,9.934999466E0,1.770688742E-1
1.218954964E1,-1.196411327E-1,9.930213928E0,1.722832322E-1
1.219923646E1,-1.196411327E-1,9.939785004E0,1.674975902E-1
1.220892125E1,-1.052841991E-1,9.939785004E0,1.914258152E-1
1.221860698E1,-1.292124242E-1,9.925428391E0,1.770688742E-1
1.222829266E1,-1.196411327E-1,9.925428391E0,1.722832322E-1
1.223797907E1,-1.244267747E-1,9.911071777E0,1.866401732E-1
1.224766500E1,-1.292124242E-1,9.920642853E0,1.770688742E-1
1.225735068E1,-1.196411327E-1,9.939785004E0,1.722832322E-1
1.226703724E1,-1.435693651E-1,9.934999466E0,1.722832322E-1
1.227672469E1,-1.292124242E-1,9.920642853E0,1.818545163E-1
1.228641094E1,-1.292124242E-1,9.934999466E0,1.627119333E-1
1.229609563E1,-1.244267747E-1,9.939785004E0,1.770688742E-1
1.230578058E1,-1.387837082E-1,9.925428391E0,1.818545163E-1
1.231546506E1,-1.244267747E-1,9.906285286E0,1.770688742E-1
1.232515068E1,-1.148554832E-1,9.915857315E0,1.722832322E-1
1.233483552E1,-1.339980662E-1,9.925428391E0,1.818545163E-1
1.234452032E1,-1.052841991E-1,9.915857315E0,1.770688742E-1
1.235420469E1,-1.196411327E-1,9.920642853E0,1.818545163E-1
1.236389026E1,-1.244267747E-1,9.920642853E0,1.914258152E-1
1.237357594E1,-1.052841991E-1,9.930213928E0,1.818545163E-1
1.238326141E1,-1.244267747E-1,9.911071777E0,1.770688742E-1
1.239294605E1,-1.292124242E-1,9.930213928E0,1.818545163E-1
1.240263047E1,-1.292124242E-1,9.934999466E0,1.866401732E-1
1.241231693E1,-1.244267747E-1,9.939785004E0,1.818545163E-1
1.242200136E1,-1.100698411E-1,9.934999466E0,1.914258152E-1
1.243168714E1,-1.004985496E-1,9.944570541E0,1.866401732E-1
1.244137287E1,-1.196411327E-1,9.934999466E0,1.818545163E-1
1.245105938E1,-1.339980662E-1,9.925428391E0,1.770688742E-1
1.246074573E1,-1.052841991E-1,9.930213928E0,1.722832322E-1
1.247043068E1,-1.244267747E-1,9.920642853E0,1.770688742E-1
1.248011662E1,-1.339980662E-1,9.930213928E0,1.770688742E-1
1.248980230E1,-1.196411327E-1,9.930213928E0,1.818545163E-1
1.249948761E1,-1.339980662E-1,9.925428391E0,1.866401732E-1
1.250917402E1,-1.196411327E-1,9.930213928E0,1.674975902E-1
1.251885943E1,-1.292124242E-1,9.939785004E0,1.770688742E-1
1.252854552E1,-1.339980662E-1,9.925428391E0,1.818545163E-1
1.253823172E1,-1.244267747E-1,9.939785004E0,1.818545163E-1
1.254791698E1,-1.387837082E-1,9.930213928E0,1.818545163E-1
1.255760125E1,-1.244267747E-1,9.939785004E0,1.722832322E-1
1.256728693E1,-1.148554832E-1,9.925428391E0,1.818545163E-1
1.257697313E1,-1.148554832E-1,9.930213928E0,1.866401732E-1
1.258665714E1,-1.531406492E-1,9.934999466E0,1.722832322E-1
1.259634141E1,-1.244267747E-1,9.906285286E0,1.818545163E-1
1.260602584E1,-1.100698411E-1,9.925428391E0,1.866401732E-1
1.261571032E1,-1.292124242E-1,9.934999466E0,1.866401732E-1
1.262539469E1,-1.339980662E-1,9.934999466E0,1.866401732E-1
1.263507948E1,-1.244267747E-1,9.939785004E0,1.818545163E-1
1.264476558E1,-1.196411327E-1,9.925428391E0,1.770688742E-1
1.265445068E1,-1.244267747E-1,9.934999466E0,1.866401732E-1
1.266413719E1,-1.292124242E-1,9.925428391E0,1.770688742E-1
1.267382271E1,-1.244267747E-1,9.934999466E0,1.818545163E-1
1.268350792E1,-1.196411327E-1,9.934999466E0,1.914258152E-1
1.269319339E1,-1.292124242E-1,9.934999466E0,1.818545163E-1
1.270287896E1,-1.100698411E-1,9.925428391E0,1.962114573E-1
1.271256381E1,-1.100698411E-1,9.925428391E0,1.722832322E-1
1.272224896E1,-1.196411327E-1,9.934999466E0,1.818545163E-1
1.273193480E1,-1.196411327E-1,9.920642853E0,1.818545163E-1
1.274162011E1,-1.339980662E-1,9.949356079E0,1.818545163E-1
1.275130459E1,-1.196411327E-1,9.925428391E0,1.818545163E-1
1.276098891E1,-1.148554832E-1,9.925428391E0,1.962114573E-1
1.277067204E1,-1.196411327E-1,9.930213928E0,1.866401732E-1
1.278035698E1,-1.339980662E-1,9.934999466E0,1.674975902E-1
1.279004454E1,-1.292124242E-1,9.925428391E0,1.674975902E-1
1.279973094E1,-1.148554832E-1,9.944570541E0,1.818545163E-1
1.280941526E1,-1.244267747E-1,9.944570541E0,1.866401732E-1
1.281909985E1,-1.244267747E-1,9.944570541E0,1.818545163E-1
1.282878474E1,-1.196411327E-1,9.934999466E0,1.722832322E-1
1.283847032E1,-1.148554832E-1,9.925428391E0,1.722832322E-1
1.284815558E1,-1.387837082E-1,9.915857315E0,1.818545163E-1
1.285784172E1,-1.244267747E-1,9.934999466E0,1.818545163E-1
1.286752844E1,-1.196411327E-1,9.958928108E0,1.722832322E-1
1.287721323E1,-1.339980662E-1,9.934999466E0,1.866401732E-1
1.288689849E1,-1.387837082E-1,9.934999466E0,1.770688742E-1
1.289658318E1,-1.244267747E-1,9.920642853E0,1.722832322E-1
1.290626933E1,-1.196411327E-1,9.915857315E0,1.674975902E-1
1.291595516E1,-1.004985496E-1,9.925428391E0,1.770688742E-1
1.292564063E1,-1.292124242E-1,9.920642853E0,1.818545163E-1
1.293532448E1,-1.244267747E-1,9.930213928E0,1.674975902E-1
1.294500980E1,-1.196411327E-1,9.934999466E0,1.818545163E-1
1.295469547E1,-1.148554832E-1,9.925428391E0,1.818545163E-1
1.296438167E1,-1.292124242E-1,9.934999466E0,1.818545163E-1
1.297406792E1,-1.196411327E-1,9.944570541E0,1.818545163E-1
1.298375329E1,-1.339980662E-1,9.934999466E0,1.818545163E-1
1.299343844E1,-1.052841991E-1,9.934999466E0,1.962114573E-1
1.300312313E1,-1.483550072E-1,9.930213928E0,1.866401732E-1
1.301280797E1,-1.435693651E-1,9.934999466E0,1.674975902E-1
1.302249344E1,-1.244267747E-1,9.934999466E0,1.770688742E-1
1.303217875E1,-1.052841991E-1,9.925428391E0,1.722832322E-1
1.304186438E1,-1.244267747E-1,9.925428391E0,1.818545163E-1
1.305154855E1,-1.339980662E-1,9.925428391E0,1.914258152E-1
1.306123365E1,-1.292124242E-1,9.920642853E0,1.866401732E-1
1.307091823E1,-1.339980662E-1,9.944570541E0,1.914258152E-1
1.308060490E1,-1.148554832E-1,9.930213928E0,1.722832322E-1
1.309028917E1,-1.244267747E-1,9.934999466E0,1.770688742E-1
1.309997495E1,-1.292124242E-1,9.925428391E0,1.818545163E-1
1.310965886E1,-1.292124242E-1,9.925428391E0,1.770688742E-1
1.311934355E1,-1.244267747E-1,9.930213928E0,1.674975902E-1
1.312902844E1,-1.292124242E-1,9.939785004E0,1.866401732E-1
1.313871506E1,-1.244267747E-1,9.934999466E0,1.770688742E-1
1.314839928E1,-1.244267747E-1,9.930213928E0,1.866401732E-1
1.315808485E1,-1.100698411E-1,9.934999466E0,1.674975902E-1
1.316776948E1,-1.148554832E-1,9.934999466E0,1.818545163E-1
1.317745553E1,-1.292124242E-1,9.930213928E0,1.866401732E-1
1.318713969E1,-1.339980662E-1,9.920642853E0,1.722832322E-1
1.319682417E1,-1.387837082E-1,9.930213928E0,1.866401732E-1
1.320651026E1,-1.244267747E-1,9.920642853E0,1.818545163E-1
1.321619615E1,-1.292124242E-1,9.934999466E0,1.818545163E-1
1.322588323E1,-1.244267747E-1,9.934999466E0,1.770688742E-1
1.323556907E1,-1.100698411E-1,9.925428391E0,1.818545163E-1
1.324525407E1,-1.339980662E-1,9.930213928E0,1.674975902E-1
1.325493750E1,-1.292124242E-1,9.930213928E0,1.722832322E-1
1.326462266E1,-1.339980662E-1,9.944570541E0,1.818545163E-1
1.327430849E1,-1.244267747E-1,9.934999466E0,1.770688742E-1
1.328399402E1,-1.292124242E-1,9.944570541E0,1.674975902E-1
1.329368172E1,-1.196411327E-1,9.930213928E0,1.866401732E-1
1.330336766E1,-1.435693651E-1,9.934999466E0,1.770688742E-1
1.331305344E1,-1.244267747E-1,9.954142570E0,1.722832322E-1
1.332273954E1,-1.339980662E-1,9.934999466E0,1.770688742E-1
1.333242678E1,-1.148554832E-1,9.934999466E0,1.770688742E-1
1.334211292E1,-1.148554832E-1,9.930213928E0,1.770688742E-1
1.335179964E1,-1.339980662E-1,9.944570541E0,1.674975902E-1
1.336148532E1,-1.244267747E-1,9.939785004E0,1.818545163E-1
1.337117037E1,-1.244267747E-1,9.939785004E0,1.818545163E-1
1.338085584E1,-1.339980662E-1,9.934999466E0,1.866401732E-1
1.339054261E1,-1.339980662E-1,9.925428391E0,1.674975902E-1
1.340022954E1,-1.244267747E-1,9.930213928E0,1.722832322E-1
1.340991412E1,-1.100698411E-1,9.930213928E0,1.674975902E-1
1.341959928E1,-1.244267747E-1,9.930213928E0,1.722832322E-1
1.342928402E1,-1.292124242E-1,9.930213928E0,1.674975902E-1
1.343896964E1,-1.387837082E-1,9.925428391E0,1.770688742E-1
1.344865625E1,-1.339980662E-1,9.915857315E0,1.674975902E-1
1.345834230E1,-1.244267747E-1,9.925428391E0,1.866401732E-1
1.346802745E1,-1.339980662E-1,9.915857315E0,1.818545163E-1
1.347771303E1,-1.148554832E-1,9.934999466E0,1.770688742E-1
1.348739829E1,-1.339980662E-1,9.934999466E0,1.722832322E-1
1.349708474E1,-1.148554832E-1,9.934999466E0,1.818545163E-1
1.350676974E1,-1.339980662E-1,9.934999466E0,1.770688742E-1
1.351645553E1,-1.244267747E-1,9.920642853E0,1.770688742E-1
1.352613943E1,-1.292124242E-1,9.939785004E0,1.866401732E-1
1.353582448E1,-1.292124242E-1,9.930213928E0,1.818545163E-1
1.354551079E1,-1.292124242E-1,9.930213928E0,1.914258152E-1
1.355519610E1,-1.196411327E-1,9.930213928E0,1.770688742E-1
1.356488063E1,-1.339980662E-1,9.949356079E0,1.770688742E-1
1.357456599E1,-1.244267747E-1,9.930213928E0,1.770688742E-1
1.358425110E1,-1.244267747E-1,9.949356079E0,1.770688742E-1
1.359393756E1,-1.196411327E-1,9.925428391E0,1.818545163E-1
1.360362303E1,-1.244267747E-1,9.920642853E0,1.818545163E-1
1.361331016E1,-1.292124242E-1,9.934999466E0,1.818545163E-1
1.362299568E1,-1.244267747E-1,9.920642853E0,1.818545163E-1
1.363268120E1,-1.196411327E-1,9.930213928E0,1.722832322E-1
1.364236652E1,-1.196411327E-1,9.920642853E0,1.770688742E-1
1.365205313E1,-1.244267747E-1,9.934999466E0,1.722832322E-1
1.366173938E1,-1.196411327E-1,9.925428391E0,1.818545163E-1
1.367142594E1,-1.100698411E-1,9.930213928E0,1.818545163E-1
1.368111209E1,-1.148554832E-1,9.925428391E0,1.770688742E-1
1.369079787E1,-1.339980662E-1,9.934999466E0,1.722832322E-1
1.370048302E1,-1.196411327E-1,9.915857315E0,1.674975902E-1
1.371016761E1,-1.244267747E-1,9.934999466E0,1.722832322E-1
1.371985323E1,-1.435693651E-1,9.930213928E0,1.818545163E-1
1.372953745E1,-1.148554832E-1,9.934999466E0,1.722832322E-1
1.373922266E1,-1.244267747E-1,9.915857315E0,1.770688742E-1
1.374890865E1,-1.244267747E-1,9.925428391E0,1.770688742E-1
1.375859329E1,-1.052841991E-1,9.934999466E0,1.818545163E-1
1.376827782E1,-1.244267747E-1,9.930213928E0,1.770688742E-1
1.377796266E1,-1.339980662E-1,9.934999466E0,1.818545163E-1
1.378764776E1,-1.148554832E-1,9.944570541E0,1.818545163E-1
1.379733542E1,-1.387837082E-1,9.925428391E0,1.818545163E-1
1.380702214E1,-1.244267747E-1,9.920642853E0,1.818545163E-1
1.381670855E1,-1.196411327E-1,9.915857315E0,1.722832322E-1
1.382639396E1,-1.292124242E-1,9.930213928E0,1.818545163E-1
1.383608099E1,-1.292124242E-1,9.920642853E0,1.866401732E-1
1.384576766E1,-1.148554832E-1,9.925428391E0,1.770688742E-1
1.385545297E1,-1.244267747E-1,9.934999466E0,1.866401732E-1
1.386513740E1,-1.244267747E-1,9.930213928E0,1.818545163E-1
1.387482266E1,-1.244267747E-1,9.925428391E0,1.818545163E-1
1.388450646E1,-1.196411327E-1,9.934999466E0,1.722832322E-1
1.389419297E1,-1.292124242E-1,9.934999466E0,1.770688742E-1
1.390387891E1,-1.148554832E-1,9.949356079E0,1.722832322E-1
1.391356454E1,-1.244267747E-1,9.934999466E0,1.770688742E-1
1.392324974E1,-1.339980662E-1,9.920642853E0,1.818545163E-1
1.393293589E1,-1.196411327E-1,9.920642853E0,1.770688742E-1
1.394262146E1,-1.196411327E-1,9.925428391E0,1.770688742E-1
1.395230797E1,-1.435693651E-1,9.911071777E0,1.914258152E-1
1.396199375E1,-1.292124242E-1,9.915857315E0,1.770688742E-1
1.397167990E1,-1.196411327E-1,9.911071777E0,1.722832322E-1
1.398136381E1,-1.100698411E-1,9.920642853E0,1.962114573E-1
1.399104912E1,-1.435693651E-1,9.934999466E0,1.866401732E-1
1.400073490E1,-1.148554832E-1,9.925428391E0,1.962114573E-1
1.401042110E1,-1.148554832E-1,9.915857315E0,1.770688742E-1
1.402010714E1,-1.339980662E-1,9.930213928E0,1.818545163E-1
1.402979292E1,-1.292124242E-1,9.906285286E0,1.674975902E-1
1.403947896E1,-1.244267747E-1,9.930213928E0,1.770688742E-1
1.404916480E1,-1.387837082E-1,9.930213928E0,1.866401732E-1
1.405885099E1,-1.244267747E-1,9.934999466E0,1.818545163E-1
1.406853667E1,-1.196411327E-1,9.930213928E0,1.770688742E-1
1.407822073E1,-1.435693651E-1,9.930213928E0,1.770688742E-1
1.408790537E1,-1.339980662E-1,9.939785004E0,1.770688742E-1
1.409759047E1,-1.148554832E-1,9.920642853E0,1.674975902E-1
1.410727547E1,-1.387837082E-1,9.934999466E0,1.818545163E-1
1.411696037E1,-1.292124242E-1,9.925428391E0,1.722832322E-1
1.412664683E1,-1.196411327E-1,9.934999466E0,1.818545163E-1
1.413633282E1,-1.387837082E-1,9.915857315E0,1.770688742E-1
1.414601912E1,-1.244267747E-1,9.925428391E0,1.674975902E-1
1.415570589E1,-1.292124242E-1,9.920642853E0,1.722832322E-1
1.416539162E1,-1.100698411E-1,9.915857315E0,1.818545163E-1
1.417507813E1,-1.244267747E-1,9.934999466E0,1.770688742E-1
1.418476480E1,-1.148554832E-1,9.925428391E0,1.866401732E-1
1.419445136E1,-1.292124242E-1,9.925428391E0,1.722832322E-1
1.420413678E1,-1.196411327E-1,9.925428391E0,1.818545163E-1
1.421382375E1,-1.244267747E-1,9.930213928E0,1.770688742E-1
1.422350761E1,-1.339980662E-1,9.925428391E0,1.818545163E-1
1.423319339E1,-1.148554832E-1,9.944570541E0,1.770688742E-1
1.424287803E1,-1.196411327E-1,9.939785004E0,1.770688742E-1
1.425256417E1,-1.292124242E-1,9.925428391E0,1.770688742E-1
1.426224917E1,-1.339980662E-1,9.939785004E0,1.770688742E-1
1.427193506E1,-1.196411327E-1,9.939785004E0,1.818545163E-1
1.428162047E1,-1.196411327E-1,9.934999466E0,1.818545163E-1
1.429130646E1,-1.148554832E-1,9.944570541E0,1.674975902E-1
1.430099131E1,-1.148554832E-1,9.944570541E0,1.722832322E-1
1.431067792E1,-1.148554832E-1,9.939785004E0,1.722832322E-1
1.432036386E1,-1.196411327E-1,9.915857315E0,1.818545163E-1
1.433004954E1,-1.148554832E-1,9.930213928E0,1.818545163E-1
1.433973610E1,-1.435693651E-1,9.944570541E0,1.722832322E-1
1.434942214E1,-1.339980662E-1,9.925428391E0,1.722832322E-1
1.435910688E1,-1.292124242E-1,9.930213928E0,1.818545163E-1
1.436879162E1,-1.339980662E-1,9.920642853E0,1.722832322E-1
1.437847516E1,-1.339980662E-1,9.944570541E0,1.818545163E-1
1.438816162E1,-1.292124242E-1,9.915857315E0,1.818545163E-1
1.439784766E1,-1.196411327E-1,9.930213928E0,1.818545163E-1
1.440753339E1,-1.339980662E-1,9.925428391E0,1.866401732E-1
1.441721881E1,-1.196411327E-1,9.915857315E0,1.818545163E-1
1.442690454E1,-1.196411327E-1,9.920642853E0,1.770688742E-1
1.443658886E1,-1.292124242E-1,9.925428391E0,1.818545163E-1
1.444627407E1,-1.196411327E-1,9.915857315E0,1.866401732E-1
1.445595912E1,-1.148554832E-1,9.939785004E0,1.818545163E-1
1.446564490E1,-1.244267747E-1,9.934999466E0,1.770688742E-1
1.447533131E1,-1.148554832E-1,9.920642853E0,1.818545163E-1
1.448501714E1,-1.148554832E-1,9.920642853E0,1.770688742E-1
1.449470334E1,-1.339980662E-1,9.915857315E0,1.866401732E-1
1.450439042E1,-1.292124242E-1,9.930213928E0,1.818545163E-1
1.451407521E1,-1.244267747E-1,9.915857315E0,1.818545163E-1
1.452376146E1,-1.244267747E-1,9.939785004E0,1.818545163E-1
1.453344719E1,-1.244267747E-1,9.920642853E0,1.722832322E-1
1.454313355E1,-1.196411327E-1,9.944570541E0,1.818545163E-1
1.455281928E1,-1.435693651E-1,9.934999466E0,1.770688742E-1
1.456250480E1,-1.100698411E-1,9.925428391E0,1.770688742E-1
1.457218907E1,-1.196411327E-1,9.925428391E0,1.722832322E-1
1.458187500E1,-1.387837082E-1,9.934999466E0,1.866401732E-1
1.459156115E1,-1.100698411E-1,9.925428391E0,1.770688742E-1
1.460124698E1,-1.244267747E-1,9.925428391E0,1.866401732E-1
1.461093407E1,-1.292124242E-1,9.925428391E0,1.770688742E-1
1.462061969E1,-1.196411327E-1,9.934999466E0,1.962114573E-1
1.463030568E1,-1.387837082E-1,9.925428391E0,1.818545163E-1
1.463999172E1,-1.196411327E-1,9.934999466E0,1.818545163E-1
1.464967860E1,-1.339980662E-1,9.930213928E0,1.627119333E-1
1.465936454E1,-1.196411327E-1,9.934999466E0,1.866401732E-1
1.466904995E1,-1.196411327E-1,9.939785004E0,1.914258152E-1
1.467873568E1,-1.196411327E-1,9.920642853E0,1.866401732E-1
1.468842125E1,-1.148554832E-1,9.939785004E0,1.770688742E-1
1.469810698E1,-1.435693651E-1,9.920642853E0,1.627119333E-1
1.470779219E1,-1.292124242E-1,9.925428391E0,1.722832322E-1
1.471747750E1,-1.196411327E-1,9.939785004E0,1.962114573E-1
1.472716282E1,-1.196411327E-1,9.939785004E0,1.627119333E-1
1.473684969E1,-1.244267747E-1,9.934999466E0,1.914258152E-1
1.474653521E1,-1.531406492E-1,9.939785004E0,1.818545163E-1
1.475622032E1,-1.052841991E-1,9.930213928E0,1.962114573E-1
1.476590672E1,-1.244267747E-1,9.934999466E0,1.770688742E-1
1.477559318E1,-1.244267747E-1,9.944570541E0,1.674975902E-1
1.478527870E1,-1.292124242E-1,9.930213928E0,1.674975902E-1
1.479496375E1,-1.244267747E-1,9.925428391E0,1.866401732E-1
1.480464855E1,-1.244267747E-1,9.939785004E0,1.722832322E-1
1.481433402E1,-1.196411327E-1,9.949356079E0,1.674975902E-1
1.482401943E1,-1.244267747E-1,9.934999466E0,1.674975902E-1
1.483370652E1,-1.244267747E-1,9.939785004E0,1.914258152E-1
1.484339178E1,-1.148554832E-1,9.944570541E0,1.818545163E-1
1.485307678E1,-1.148554832E-1,9.930213928E0,1.818545163E-1
1.486276292E1,-1.244267747E-1,9.920642853E0,1.866401732E-1
1.487244974E1,-1.339980662E-1,9.920642853E0,1.770688742E-1
1.488213579E1,-1.196411327E-1,9.949356079E0,1.770688742E-1
1.489182157E1,-1.244267747E-1,9.949356079E0,1.770688742E-1
1.490150782E1,-1.244267747E-1,9.925428391E0,1.818545163E-1
1.491119287E1,-1.339980662E-1,9.930213928E0,1.914258152E-1
1.492087902E1,-1.148554832E-1,9.915857315E0,1.722832322E-1
1.493056485E1,-1.339980662E-1,9.934999466E0,1.770688742E-1
1.494025037E1,-1.387837082E-1,9.934999466E0,1.866401732E-1
1.494993719E1,-1.196411327E-1,9.934999466E0,1.770688742E-1
1.495962407E1,-1.292124242E-1,9.930213928E0,1.627119333E-1
1.496930922E1,-1.387837082E-1,9.930213928E0,1.770688742E-1
1.497899573E1,-1.196411327E-1,9.925428391E0,1.674975902E-1
1.498868172E1,-1.196411327E-1,9.930213928E0,1.818545163E-1
1.499836672E1,-1.292124242E-1,9.934999466E0,1.627119333E-1
1.500805167E1,-1.148554832E-1,9.925428391E0,1.770688742E-1
1.501773818E1,-1.244267747E-1,9.939785004E0,1.722832322E-1
1.502742417E1,-1.244267747E-1,9.930213928E0,1.770688742E-1
1.503711016E1,-1.292124242E-1,9.939785004E0,1.818545163E-1
1.504679594E1,-1.196411327E-1,9.939785004E0,1.770688742E-1
1.505648224E1,-1.292124242E-1,9.920642853E0,1.722832322E-1
1.506616829E1,-1.244267747E-1,9.930213928E0,1.818545163E-1
1.507585527E1,-1.100698411E-1,9.944570541E0,1.818545163E-1
1.508554198E1,-1.244267747E-1,9.934999466E0,1.914258152E-1
1.509522922E1,-1.244267747E-1,9.934999466E0,1.818545163E-1
1.510491605E1,-1.100698411E-1,9.925428391E0,1.818545163E-1
1.511460266E1,-1.148554832E-1,9.939785004E0,1.962114573E-1
1.512428891E1,-1.244267747E-1,9.944570541E0,1.914258152E-1
1.513397438E1,-1.148554832E-1,9.930213928E0,1.770688742E-1
1.514366016E1,-1.339980662E-1,9.944570541E0,1.722832322E-1
1.515334620E1,-1.100698411E-1,9.930213928E0,1.627119333E-1
1.516303230E1,-1.148554832E-1,9.944570541E0,1.866401732E-1
1.517271933E1,-1.196411327E-1,9.930213928E0,1.914258152E-1
1.518240667E1,-1.244267747E-1,9.930213928E0,1.818545163E-1
1.519209266E1,-1.148554832E-1,9.920642853E0,1.770688742E-1
1.520177875E1,-1.148554832E-1,9.915857315E0,1.770688742E-1
1.521146454E1,-1.196411327E-1,9.930213928E0,1.866401732E-1
1.522115094E1,-1.292124242E-1,9.934999466E0,1.770688742E-1
1.523083652E1,-1.148554832E-1,9.930213928E0,1.722832322E-1
1.524052355E1,-1.244267747E-1,9.911071777E0,1.818545163E-1
1.525020902E1,-1.292124242E-1,9.915857315E0,1.866401732E-1
1.525989480E1,-1.100698411E-1,9.949356079E0,1.722832322E-1
1.526958000E1,-1.148554832E-1,9.930213928E0,1.770688742E-1
1.527926579E1,-1.339980662E-1,9.939785004E0,1.818545163E-1
1.528895131E1,-1.196411327E-1,9.939785004E0,1.722832322E-1
1.529863865E1,-1.148554832E-1,9.949356079E0,1.770688742E-1
1.530832537E1,-1.196411327E-1,9.934999466E0,1.770688742E-1
1.531801053E1,-1.196411327E-1,9.925428391E0,1.770688742E-1
1.532769678E1,-1.339980662E-1,9.915857315E0,1.770688742E-1
1.533738277E1,-1.339980662E-1,9.920642853E0,1.770688742E-1
1.534706771E1,-1.196411327E-1,9.920642853E0,1.818545163E-1
1.535675433E1,-1.292124242E-1,9.920642853E0,1.818545163E-1
1.536644110E1,-1.052841991E-1,9.920642853E0,1.674975902E-1
1.537612745E1,-1.292124242E-1,9.925428391E0,1.866401732E-1
1.538581386E1,-1.387837082E-1,9.920642853E0,1.914258152E-1
1.539549933E1,-1.387837082E-1,9.934999466E0,1.866401732E-1
1.540518500E1,-1.196411327E-1,9.934999466E0,1.722832322E-1
1.541487198E1,-1.148554832E-1,9.939785004E0,1.818545163E-1
1.542455902E1,-1.292124242E-1,9.934999466E0,1.770688742E-1
1.543424506E1,-1.292124242E-1,9.934999466E0,1.818545163E-1
1.544393183E1,-1.387837082E-1,9.925428391E0,1.962114573E-1
1.545361678E1,-1.244267747E-1,9.930213928E0,1.818545163E-1
1.546330219E1,-1.292124242E-1,9.934999466E0,1.770688742E-1
1.547298714E1,-1.196411327E-1,9.925428391E0,1.866401732E-1
1.548267224E1,-1.292124242E-1,9.934999466E0,1.770688742E-1
1.549236011E1,-1.244267747E-1,9.930213928E0,1.770688742E-1
1.550204771E1,-1.244267747E-1,9.939785004E0,1.722832322E-1
1.551173407E1,-1.292124242E-1,9.934999466E0,1.818545163E-1
1.552142006E1,-1.339980662E-1,9.939785004E0,1.722832322E-1
1.553110579E1,-1.292124242E-1,9.930213928E0,1.818545163E-1
1.554079323E1,-1.292124242E-1,9.925428391E0,1.866401732E-1
1.555047750E1,-1.387837082E-1,9.925428391E0,1.770688742E-1
1.556016349E1,-1.435693651E-1,9.939785004E0,1.818545163E-1
1.556984954E1,-1.244267747E-1,9.925428391E0,1.770688742E-1
1.557953584E1,-1.196411327E-1,9.944570541E0,1.914258152E-1
1.558922120E1,-1.196411327E-1,9.930213928E0,1.818545163E-1
1.559890792E1,-1.292124242E-1,9.925428391E0,1.818545163E-1
1.560859412E1,-1.292124242E-1,9.934999466E0,1.722832322E-1
1.561828094E1,-1.196411327E-1,9.939785004E0,1.770688742E-1
1.562796792E1,-1.148554832E-1,9.925428391E0,1.866401732E-1
1.563765469E1,-1.052841991E-1,9.920642853E0,1.818545163E-1
1.564734266E1,-1.148554832E-1,9.925428391E0,1.818545163E-1
1.565703006E1,-1.196411327E-1,9.944570541E0,1.818545163E-1
1.566671625E1,-1.339980662E-1,9.949356079E0,1.962114573E-1
1.567640318E1,-1.339980662E-1,9.930213928E0,1.770688742E-1
1.568609058E1,-1.292124242E-1,9.939785004E0,1.627119333E-1
1.569577615E1,-1.292124242E-1,9.920642853E0,1.770688742E-1
1.570546240E1,-1.196411327E-1,9.934999466E0,1.818545163E-1
1.571514829E1,-1.244267747E-1,9.944570541E0,1.818545163E-1
1.572483474E1,-1.196411327E-1,9.930213928E0,1.770688742E-1
1.573452089E1,-1.196411327E-1,9.934999466E0,1.818545163E-1
1.574420714E1,-1.244267747E-1,9.930213928E0,1.722832322E-1
1.575389459E1,-1.196411327E-1,9.915857315E0,1.866401732E-1
1.576358053E1,-1.292124242E-1,9.934999466E0,1.770688742E-1
1.577326542E1,-1.292124242E-1,9.939785004E0,1.818545163E-1
1.578295141E1,-1.196411327E-1,9.934999466E0,1.770688742E-1
1.579263719E1,-1.196411327E-1,9.925428391E0,1.722832322E-1
1.580232438E1,-1.244267747E-1,9.925428391E0,1.770688742E-1
1.581200974E1,-1.292124242E-1,9.915857315E0,1.818545163E-1
1.582169641E1,-1.148554832E-1,9.939785004E0,1.722832322E-1
1.583138178E1,-1.148554832E-1,9.925428391E0,1.722832322E-1
1.584106657E1,-1.292124242E-1,9.911071777E0,1.770688742E-1
1.585075219E1,-1.196411327E-1,9.939785004E0,1.722832322E-1
1.586043912E1,-1.339980662E-1,9.915857315E0,1.770688742E-1
1.587012506E1,-1.148554832E-1,9.939785004E0,1.674975902E-1
1.587981037E1,-1.148554832E-1,9.920642853E0,1.770688742E-1
1.588949433E1,-1.100698411E-1,9.930213928E0,1.722832322E-1
1.589917808E1,-1.244267747E-1,9.915857315E0,1.770688742E-1
1.590886256E1,-1.292124242E-1,9.915857315E0,1.914258152E-1
1.591854709E1,-1.100698411E-1,9.939785004E0,1.770688742E-1
1.592823110E1,-1.292124242E-1,9.939785004E0,1.770688742E-1
1.593791563E1,-1.196411327E-1,9.930213928E0,1.770688742E-1
1.594760172E1,-1.339980662E-1,9.925428391E0,1.722832322E-1
1.595728683E1,-1.244267747E-1,9.925428391E0,1.866401732E-1
1.596697167E1,-1.435693651E-1,9.939785004E0,1.770688742E-1
1.597665683E1,-1.292124242E-1,9.934999466E0,1.818545163E-1
1.598634105E1,-1.435693651E-1,9.934999466E0,1.818545163E-1
1.599602615E1,-1.196411327E-1,9.925428391E0,1.914258152E-1
1.600571131E1,-1.244267747E-1,9.939785004E0,1.866401732E-1
1.601539896E1,-1.244267747E-1,9.930213928E0,1.818545163E-1
1.602508584E1,-1.339980662E-1,9.925428391E0,1.722832322E-1
1.603477084E1,-1.244267747E-1,9.939785004E0,1.770688742E-1
1.604445704E1,-1.339980662E-1,9.949356079E0,1.722832322E-1
1.605414250E1,-1.339980662E-1,9.939785004E0,1.722832322E-1
1.606382704E1,-1.196411327E-1,9.920642853E0,1.818545163E-1
1.607351240E1,-1.292124242E-1,9.939785004E0,1.818545163E-1
1.608319829E1,-1.052841991E-1,9.920642853E0,1.818545163E-1
1.609288428E1,-1.339980662E-1,9.939785004E0,1.818545163E-1
1.610257084E1,-1.148554832E-1,9.939785004E0,1.818545163E-1
1.611225646E1,-1.148554832E-1,9.920642853E0,1.818545163E-1
1.612194261E1,-1.244267747E-1,9.925428391E0,1.914258152E-1
1.613162745E1,-1.244267747E-1,9.934999466E0,1.818545163E-1
1.614131235E1,-1.292124242E-1,9.911071777E0,1.866401732E-1
1.615099678E1,-1.196411327E-1,9.930213928E0,1.818545163E-1
1.616068214E1,-1.244267747E-1,9.934999466E0,1.866401732E-1
1.617036829E1,-1.244267747E-1,9.939785004E0,1.818545163E-1
1.618005277E1,-1.196411327E-1,9.930213928E0,1.770688742E-1
1.618973860E1,-1.292124242E-1,9.944570541E0,1.722832322E-1
1.619942365E1,-1.004985496E-1,9.949356079E0,1.674975902E-1
1.620910896E1,-1.196411327E-1,9.920642853E0,1.627119333E-1
1.621879370E1,-1.100698411E-1,9.934999466E0,1.722832322E-1
1.622847865E1,-1.387837082E-1,9.930213928E0,1.866401732E-1
1.623816448E1,-1.196411327E-1,9.934999466E0,1.770688742E-1
1.624785042E1,-1.339980662E-1,9.920642853E0,1.770688742E-1
1.625753615E1,-1.292124242E-1,9.901499748E0,1.818545163E-1
1.626722125E1,-1.244267747E-1,9.915857315E0,1.674975902E-1
1.627690771E1,-1.435693651E-1,9.934999466E0,1.818545163E-1
1.628659365E1,-1.196411327E-1,9.934999466E0,1.770688742E-1
1.629627959E1,-1.244267747E-1,9.958928108E0,1.722832322E-1
1.630596579E1,-1.387837082E-1,9.939785004E0,1.818545163E-1
1.631565178E1,-1.244267747E-1,9.934999466E0,1.818545163E-1
1.632533573E1,-1.387837082E-1,9.930213928E0,1.722832322E-1
1.633502058E1,-1.387837082E-1,9.925428391E0,1.962114573E-1
1.634470537E1,-1.148554832E-1,9.939785004E0,1.770688742E-1
1.635439089E1,-1.100698411E-1,9.954142570E0,1.818545163E-1
1.636407730E1,-1.244267747E-1,9.925428391E0,1.818545163E-1
1.637376287E1,-1.339980662E-1,9.958928108E0,1.818545163E-1
1.638344802E1,-1.339980662E-1,9.939785004E0,1.627119333E-1
1.639313204E1,-1.292124242E-1,9.934999466E0,1.818545163E-1
1.640281693E1,-1.339980662E-1,9.939785004E0,1.722832322E-1
1.641250136E1,-1.244267747E-1,9.934999466E0,1.627119333E-1
1.642218594E1,-1.244267747E-1,9.934999466E0,1.770688742E-1
1.643187183E1,-1.244267747E-1,9.911071777E0,1.866401732E-1
1.644155698E1,-1.196411327E-1,9.920642853E0,1.818545163E-1
1.645124360E1,-1.244267747E-1,9.920642853E0,1.818545163E-1
1.646092855E1,-1.148554832E-1,9.920642853E0,1.722832322E-1
1.647061396E1,-1.292124242E-1,9.934999466E0,1.770688742E-1
1.648029938E1,-1.196411327E-1,9.954142570E0,1.770688742E-1
1.648998344E1,-1.244267747E-1,9.915857315E0,1.818545163E-1
1.649966823E1,-1.100698411E-1,9.925428391E0,1.866401732E-1
1.650935292E1,-1.148554832E-1,9.934999466E0,1.818545163E-1
1.651903875E1,-1.196411327E-1,9.930213928E0,1.770688742E-1
1.652872417E1,-1.196411327E-1,9.944570541E0,1.722832322E-1
1.653840964E1,-1.148554832E-1,9.934999466E0,1.770688742E-1
1.654809386E1,-1.244267747E-1,9.930213928E0,1.722832322E-1
1.655777948E1,-1.292124242E-1,9.930213928E0,1.818545163E-1
1.656746474E1,-1.387837082E-1,9.939785004E0,1.770688742E-1
1.657715000E1,-1.483550072E-1,9.939785004E0,1.866401732E-1
1.658683652E1,-1.148554832E-1,9.939785004E0,1.722832322E-1
1.659652261E1,-1.292124242E-1,9.920642853E0,1.866401732E-1
1.660620797E1,-1.196411327E-1,9.925428391E0,1.818545163E-1
1.661589303E1,-1.292124242E-1,9.934999466E0,1.914258152E-1
1.662557740E1,-1.196411327E-1,9.930213928E0,1.770688742E-1
1.663526375E1,-1.244267747E-1,9.930213928E0,1.914258152E-1
1.664495167E1,-1.196411327E-1,9.930213928E0,1.722832322E-1
1.665463646E1,-1.244267747E-1,9.925428391E0,1.866401732E-1
1.666432183E1,-1.435693651E-1,9.930213928E0,1.818545163E-1
1.667400568E1,-1.196411327E-1,9.939785004E0,1.674975902E-1
1.668369188E1,-1.196411327E-1,9.920642853E0,1.770688742E-1
1.669337797E1,-1.292124242E-1,9.925428391E0,1.818545163E-1
1.670306407E1,-1.244267747E-1,9.930213928E0,1.722832322E-1
1.671274933E1,-1.196411327E-1,9.939785004E0,1.770688742E-1
1.672243402E1,-1.244267747E-1,9.920642853E0,1.722832322E-1
1.673211907E1,-1.292124242E-1,9.934999466E0,1.818545163E-1
1.674180485E1,-1.292124242E-1,9.925428391E0,1.770688742E-1
1.675149105E1,-1.196411327E-1,9.939785004E0,1.722832322E-1
1.676117579E1,-1.244267747E-1,9.949356079E0,1.722832322E-1
1.677086131E1,-1.100698411E-1,9.934999466E0,1.866401732E-1
1.678054724E1,-1.148554832E-1,9.920642853E0,1.674975902E-1
1.679023386E1,-1.052841991E-1,9.934999466E0,1.674975902E-1
1.679991870E1,-1.196411327E-1,9.930213928E0,1.818545163E-1
1.680960527E1,-1.196411327E-1,9.920642853E0,1.770688742E-1
1.681928954E1,-1.148554832E-1,9.925428391E0,1.770688742E-1
1.682897459E1,-1.435693651E-1,9.920642853E0,1.674975902E-1
1.683865948E1,-1.292124242E-1,9.915857315E0,1.914258152E-1
1.684834349E1,-1.196411327E-1,9.925428391E0,1.866401732E-1
1.685802797E1,-1.339980662E-1,9.934999466E0,1.722832322E-1
1.686771230E1,-1.435693651E-1,9.920642853E0,1.818545163E-1
1.687739641E1,-1.292124242E-1,9.934999466E0,1.866401732E-1
1.688708079E1,-1.339980662E-1,9.934999466E0,1.866401732E-1
1.689676459E1,-1.292124242E-1,9.920642853E0,1.722832322E-1
1.690645084E1,-1.148554832E-1,9.915857315E0,1.818545163E-1
1.691613625E1,-1.244267747E-1,9.925428391E0,1.866401732E-1
1.692582157E1,-1.292124242E-1,9.934999466E0,1.770688742E-1
1.693550704E1,-1.339980662E-1,9.920642853E0,1.674975902E-1
1.694519219E1,-1.196411327E-1,9.934999466E0,1.770688742E-1
1.695487761E1,-1.339980662E-1,9.930213928E0,1.722832322E-1
1.696456136E1,-1.196411327E-1,9.930213928E0,1.770688742E-1
1.697424552E1,-1.196411327E-1,9.915857315E0,1.866401732E-1
1.698392964E1,-1.435693651E-1,9.930213928E0,1.914258152E-1
1.699361433E1,-1.148554832E-1,9.920642853E0,1.770688742E-1
1.700330089E1,-1.292124242E-1,9.939785004E0,1.722832322E-1
1.701298511E1,-1.244267747E-1,9.944570541E0,1.770688742E-1
1.702266948E1,-1.292124242E-1,9.930213928E0,1.866401732E-1
1.703235292E1,-1.148554832E-1,9.925428391E0,1.818545163E-1
1.704203802E1,-1.387837082E-1,9.925428391E0,1.722832322E-1
1.705172349E1,-1.052841991E-1,9.934999466E0,1.818545163E-1
1.706140948E1,-1.387837082E-1,9.930213928E0,1.866401732E-1
1.707109375E1,-1.292124242E-1,9.930213928E0,1.770688742E-1
1.708077896E1,-1.292124242E-1,9.925428391E0,1.770688742E-1
1.709046448E1,-1.196411327E-1,9.949356079E0,1.818545163E-1
1.710014969E1,-1.244267747E-1,9.930213928E0,1.770688742E-1
1.710983599E1,-1.292124242E-1,9.949356079E0,1.674975902E-1
1.711952152E1,-1.148554832E-1,9.944570541E0,1.770688742E-1
1.712920714E1,-1.052841991E-1,9.930213928E0,1.770688742E-1
1.713889256E1,-1.244267747E-1,9.930213928E0,1.866401732E-1
1.714857771E1,-1.292124242E-1,9.934999466E0,1.770688742E-1
1.715826323E1,-1.339980662E-1,9.925428391E0,1.818545163E-1
1.716794865E1,-1.387837082E-1,9.925428391E0,1.914258152E-1
1.717763428E1,-1.148554832E-1,9.925428391E0,1.914258152E-1
1.718732068E1,-1.292124242E-1,9.930213928E0,1.770688742E-1
1.719700521E1,-1.244267747E-1,9.925428391E0,1.770688742E-1
1.720668954E1,-1.339980662E-1,9.925428391E0,1.674975902E-1
1.721637532E1,-1.196411327E-1,9.925428391E0,1.770688742E-1
1.722606120E1,-1.292124242E-1,9.920642853E0,1.914258152E-1
1.723574808E1,-1.339980662E-1,9.930213928E0,1.818545163E-1
1.724543292E1,-1.148554832E-1,9.925428391E0,1.722832322E-1
1.725511954E1,-1.244267747E-1,9.934999466E0,1.722832322E-1
1.726480605E1,-1.244267747E-1,9.939785004E0,1.866401732E-1
1.727449214E1,-1.292124242E-1,9.920642853E0,1.818545163E-1
1.728417750E1,-1.339980662E-1,9.925428391E0,1.722832322E-1
1.729386313E1,-1.196411327E-1,9.939785004E0,1.818545163E-1
1.730354844E1,-1.196411327E-1,9.944570541E0,1.818545163E-1
1.731323375E1,-1.292124242E-1,9.920642853E0,1.770688742E-1
1.732292000E1,-1.052841991E-1,9.925428391E0,1.818545163E-1
1.733260542E1,-1.196411327E-1,9.934999466E0,1.818545163E-1
1.734229021E1,-1.339980662E-1,9.934999466E0,1.866401732E-1
1.735197480E1,-1.339980662E-1,9.939785004E0,1.674975902E-1
1.736165985E1,-1.244267747E-1,9.925428391E0,1.866401732E-1
1.737134391E1,-1.292124242E-1,9.915857315E0,1.770688742E-1
1.738102818E1,-1.196411327E-1,9.925428391E0,1.818545163E-1
1.739071323E1,-1.435693651E-1,9.920642853E0,1.579262912E-1
1.740039714E1,-1.387837082E-1,9.930213928E0,1.818545163E-1
1.741008162E1,-1.148554832E-1,9.934999466E0,1.770688742E-1
1.741976568E1,-1.148554832E-1,9.934999466E0,1.818545163E-1
1.742945026E1,-1.244267747E-1,9.944570541E0,1.866401732E-1
1.743913573E1,-1.100698411E-1,9.930213928E0,1.770688742E-1
1.744882016E1,-1.100698411E-1,9.925428391E0,1.722832322E-1
1.745850417E1,-1.004985496E-1,9.930213928E0,1.818545163E-1
1.746818917E1,-1.339980662E-1,9.930213928E0,1.770688742E-1
1.747787292E1,-1.387837082E-1,9.925428391E0,1.674975902E-1
1.748755750E1,-1.244267747E-1,9.934999466E0,1.770688742E-1
1.749724193E1,-1.292124242E-1,9.925428391E0,1.770688742E-1
1.750692745E1,-1.339980662E-1,9.925428391E0,1.674975902E-1
1.751661026E1,-1.244267747E-1,9.925428391E0,1.866401732E-1
1.752629620E1,-1.148554832E-1,9.925428391E0,1.914258152E-1
1.753598193E1,-1.196411327E-1,9.925428391E0,1.722832322E-1
1.754566896E1,-1.244267747E-1,9.930213928E0,1.722832322E-1
1.755535391E1,-1.244267747E-1,9.944570541E0,1.770688742E-1
1.756503902E1,-1.339980662E-1,9.920642853E0,1.866401732E-1
1.757472443E1,-1.196411327E-1,9.925428391E0,1.818545163E-1
1.758440922E1,-1.196411327E-1,9.925428391E0,1.818545163E-1
1.759409474E1,-1.339980662E-1,9.930213928E0,1.722832322E-1
1.760377792E1,-1.196411327E-1,9.934999466E0,1.770688742E-1
1.761346276E1,-1.244267747E-1,9.915857315E0,1.914258152E-1
1.762314652E1,-1.339980662E-1,9.934999466E0,1.914258152E-1
1.763283016E1,-1.244267747E-1,9.915857315E0,1.722832322E-1
1.764251287E1,-1.148554832E-1,9.934999466E0,1.914258152E-1
1.765219902E1,-1.244267747E-1,9.915857315E0,1.866401732E-1
1.766188438E1,-1.292124242E-1,9.925428391E0,1.914258152E-1
1.767156969E1,-1.244267747E-1,9.939785004E0,1.866401732E-1
1.768125443E1,-1.292124242E-1,9.925428391E0,1.866401732E-1
1.769093995E1,-1.244267747E-1,9.925428391E0,1.818545163E-1
1.770062438E1,-1.244267747E-1,9.934999466E0,1.866401732E-1
1.771030959E1,-1.292124242E-1,9.939785004E0,1.818545163E-1
1.771999490E1,-1.387837082E-1,9.920642853E0,1.627119333E-1
1.772968027E1,-1.292124242E-1,9.930213928E0,1.674975902E-1
1.773936610E1,-1.339980662E-1,9.930213928E0,1.818545163E-1
1.774905188E1,-1.244267747E-1,9.944570541E0,1.674975902E-1
1.775873719E1,-1.148554832E-1,9.930213928E0,1.770688742E-1
1.776842167E1,-1.196411327E-1,9.920642853E0,1.770688742E-1
1.777810568E1,-1.196411327E-1,9.934999466E0,1.818545163E-1
1.778779178E1,-1.100698411E-1,9.939785004E0,1.627119333E-1
1.779747563E1,-1.292124242E-1,9.934999466E0,1.770688742E-1
1.780715891E1,-1.339980662E-1,9.930213928E0,1.722832322E-1
1.781684396E1,-1.292124242E-1,9.930213928E0,1.866401732E-1
1.782652902E1,-1.292124242E-1,9.925428391E0,1.818545163E-1
1.783621433E1,-1.292124242E-1,9.925428391E0,1.818545163E-1
1.784589959E1,-1.148554832E-1,9.925428391E0,1.770688742E-1
1.785558558E1,-1.244267747E-1,9.930213928E0,1.818545163E-1
1.786527063E1,-1.387837082E-1,9.939785004E0,1.818545163E-1
1.787495594E1,-1.292124242E-1,9.939785004E0,1.674975902E-1
1.788464183E1,-1.148554832E-1,9.930213928E0,1.914258152E-1
1.789432667E1,-1.292124242E-1,9.930213928E0,1.914258152E-1
1.790401250E1,-1.100698411E-1,9.934999466E0,1.674975902E-1
1.791369855E1,-1.387837082E-1,9.930213928E0,1.818545163E-1
1.792338584E1,-1.244267747E-1,9.930213928E0,1.722832322E-1
1.793307240E1,-1.339980662E-1,9.915857315E0,1.770688742E-1
1.794275823E1,-1.244267747E-1,9.954142570E0,1.866401732E-1
1.795244412E1,-1.292124242E-1,9.939785004E0,1.722832322E-1
1.796213053E1,-1.244267747E-1,9.925428391E0,1.818545163E-1
1.797181443E1,-1.292124242E-1,9.925428391E0,1.914258152E-1
1.798149990E1,-1.339980662E-1,9.934999466E0,1.770688742E-1
1.799118464E1,-1.387837082E-1,9.939785004E0,1.866401732E-1
1.800087000E1,-1.244267747E-1,9.934999466E0,1.770688742E-1
1.801055474E1,-1.148554832E-1,9.934999466E0,1.770688742E-1
1.802024026E1,-1.339980662E-1,9.930213928E0,1.770688742E-1
1.802992584E1,-1.244267747E-1,9.915857315E0,1.866401732E-1
1.803961115E1,-1.196411327E-1,9.915857315E0,1.770688742E-1
1.804929547E1,-1.292124242E-1,9.934999466E0,1.818545163E-1
1.805897875E1,-1.244267747E-1,9.930213928E0,1.770688742E-1
1.806866417E1,-1.100698411E-1,9.930213928E0,1.722832322E-1
1.807834969E1,-1.244267747E-1,9.920642853E0,1.722832322E-1
1.808803563E1,-1.292124242E-1,9.925428391E0,1.722832322E-1
1.809772016E1,-1.196411327E-1,9.930213928E0,1.770688742E-1
1.810740386E1,-1.100698411E-1,9.925428391E0,1.770688742E-1
1.811708865E1,-1.196411327E-1,9.930213928E0,1.627119333E-1
1.812677334E1,-1.244267747E-1,9.944570541E0,1.818545163E-1
1.813645813E1,-1.244267747E-1,9.934999466E0,1.866401732E-1
1.814614282E1,-1.292124242E-1,9.934999466E0,1.818545163E-1
1.815582860E1,-1.292124242E-1,9.934999466E0,1.914258152E-1
1.816551469E1,-1.339980662E-1,9.934999466E0,1.818545163E-1
1.817520167E1,-1.244267747E-1,9.920642853E0,1.818545163E-1
1.818488740E1,-1.196411327E-1,9.915857315E0,1.866401732E-1
1.819457318E1,-1.292124242E-1,9.930213928E0,1.818545163E-1
1.820425802E1,-1.292124242E-1,9.934999466E0,1.818545163E-1
1.821394250E1,-1.339980662E-1,9.949356079E0,1.866401732E-1
1.822362886E1,-1.387837082E-1,9.939785004E0,1.818545163E-1
1.823331485E1,-1.244267747E-1,9.934999466E0,1.818545163E-1
1.824300027E1,-1.196411327E-1,9.939785004E0,1.770688742E-1
1.825268625E1,-1.244267747E-1,9.944570541E0,1.866401732E-1
1.826237271E1,-1.339980662E-1,9.920642853E0,1.818545163E-1
1.827205782E1,-1.387837082E-1,9.939785004E0,1.818545163E-1
1.828174308E1,-1.196411327E-1,9.934999466E0,1.866401732E-1
1.829142829E1,-1.148554832E-1,9.915857315E0,1.818545163E-1
1.830111292E1,-1.244267747E-1,9.920642853E0,1.866401732E-1
1.831079839E1,-1.339980662E-1,9.911071777E0,1.818545163E-1
1.832048370E1,-1.292124242E-1,9.934999466E0,1.914258152E-1
1.833016870E1,-1.100698411E-1,9.930213928E0,1.770688742E-1
1.833985506E1,-1.339980662E-1,9.930213928E0,1.818545163E-1
1.834954068E1,-1.244267747E-1,9.939785004E0,1.866401732E-1
1.835922719E1,-1.148554832E-1,9.934999466E0,1.818545163E-1
1.836891141E1,-1.148554832E-1,9.930213928E0,1.722832322E-1
1.837859615E1,-1.244267747E-1,9.920642853E0,1.722832322E-1
1.838828068E1,-1.244267747E-1,9.915857315E0,1.722832322E-1
1.839796516E1,-1.292124242E-1,9.906285286E0,1.579262912E-1
1.840765068E1,-1.148554832E-1,9.920642853E0,1.674975902E-1
1.841733662E1,-1.148554832E-1,9.925428391E0,1.818545163E-1
1.842702157E1,-1.339980662E-1,9.925428391E0,1.722832322E-1
1.843670693E1,-1.339980662E-1,9.930213928E0,1.818545163E-1
1.844639271E1,-1.196411327E-1,9.930213928E0,1.770688742E-1
1.845607776E1,-1.196411327E-1,9.915857315E0,1.627119333E-1
1.846576271E1,-1.339980662E-1,9.930213928E0,1.914258152E-1
1.847544672E1,-1.339980662E-1,9.930213928E0,1.866401732E-1
1.848513355E1,-1.244267747E-1,9.925428391E0,1.722832322E-1
1.849481969E1,-1.244267747E-1,9.925428391E0,1.770688742E-1
1.850450625E1,-1.339980662E-1,9.920642853E0,1.770688742E-1
1.851419282E1,-1.244267747E-1,9.920642853E0,1.722832322E-1
1.852387740E1,-1.292124242E-1,9.939785004E0,1.770688742E-1
1.853356370E1,-1.292124242E-1,9.930213928E0,1.962114573E-1
1.854324761E1,-1.292124242E-1,9.925428391E0,1.722832322E-1
1.855293209E1,-1.148554832E-1,9.925428391E0,1.674975902E-1
1.856261599E1,-1.244267747E-1,9.920642853E0,1.866401732E-1
1.857230032E1,-1.339980662E-1,9.925428391E0,1.818545163E-1
1.858198605E1,-1.387837082E-1,9.939785004E0,1.818545163E-1
1.859167146E1,-1.292124242E-1,9.939785004E0,1.818545163E-1
1.860135678E1,-1.244267747E-1,9.930213928E0,1.770688742E-1
1.861104282E1,-1.196411327E-1,9.925428391E0,1.866401732E-1
1.862072844E1,-1.292124242E-1,9.934999466E0,1.674975902E-1
1.863041433E1,-1.148554832E-1,9.944570541E0,1.770688742E-1
1.864010032E1,-1.196411327E-1,9.915857315E0,1.722832322E-1
1.864978459E1,-1.100698411E-1,9.939785004E0,1.770688742E-1
1.865946907E1,-1.244267747E-1,9.925428391E0,1.866401732E-1
1.866915386E1,-1.339980662E-1,9.930213928E0,1.770688742E-1
1.867883849E1,-1.148554832E-1,9.920642853E0,1.770688742E-1
1.868852308E1,-1.196411327E-1,9.925428391E0,1.914258152E-1
1.869820808E1,-1.339980662E-1,9.930213928E0,1.770688742E-1
1.870789276E1,-1.244267747E-1,9.930213928E0,1.866401732E-1
1.871757657E1,-1.148554832E-1,9.939785004E0,1.770688742E-1
1.872726146E1,-1.244267747E-1,9.939785004E0,1.770688742E-1
1.873694662E1,-1.244267747E-1,9.939785004E0,1.770688742E-1
1.874663115E1,-1.196411327E-1,9.944570541E0,1.818545163E-1
1.875631615E1,-1.292124242E-1,9.954142570E0,1.866401732E-1
1.876600058E1,-1.244267747E-1,9.934999466E0,1.722832322E-1
1.877568542E1,-1.244267747E-1,9.934999466E0,1.770688742E-1
1.878536933E1,-1.244267747E-1,9.934999466E0,1.722832322E-1
1.879505490E1,-1.148554832E-1,9.925428391E0,1.722832322E-1
1.880474006E1,-1.339980662E-1,9.920642853E0,1.722832322E-1
1.881442506E1,-1.196411327E-1,9.930213928E0,1.770688742E-1
1.882410802E1,-1.196411327E-1,9.930213928E0,1.722832322E-1
1.883379266E1,-1.292124242E-1,9.934999466E0,1.866401732E-1
1.884347693E1,-1.196411327E-1,9.934999466E0,1.818545163E-1
1.885316167E1,-1.292124242E-1,9.930213928E0,1.674975902E-1
1.886284532E1,-1.483550072E-1,9.925428391E0,1.722832322E-1
1.887253053E1,-1.387837082E-1,9.925428391E0,1.914258152E-1
1.888221610E1,-1.292124242E-1,9.934999466E0,1.866401732E-1
1.889190079E1,-1.244267747E-1,9.939785004E0,1.627119333E-1
1.890158698E1,-1.244267747E-1,9.915857315E0,1.722832322E-1
1.891127178E1,-1.244267747E-1,9.939785004E0,1.674975902E-1
1.892095589E1,-1.339980662E-1,9.930213928E0,1.866401732E-1
1.893064183E1,-1.244267747E-1,9.934999466E0,1.674975902E-1
1.894032683E1,-1.244267747E-1,9.934999466E0,1.866401732E-1
1.895001198E1,-1.292124242E-1,9.920642853E0,1.722832322E-1
1.895969594E1,-1.148554832E-1,9.934999466E0,1.770688742E-1
1.896938240E1,-1.196411327E-1,9.934999466E0,1.722832322E-1
1.897906933E1,-1.339980662E-1,9.930213928E0,1.818545163E-1
1.898875573E1,-1.292124242E-1,9.934999466E0,1.770688742E-1
1.899844037E1,-1.244267747E-1,9.939785004E0,1.770688742E-1
1.900812537E1,-1.292124242E-1,9.934999466E0,1.818545163E-1
1.901781157E1,-1.292124242E-1,9.939785004E0,1.770688742E-1
1.902749761E1,-1.244267747E-1,9.920642853E0,1.770688742E-1
1.903718261E1,-1.292124242E-1,9.934999466E0,1.818545163E-1
1.904686818E1,-1.148554832E-1,9.930213928E0,1.818545163E-1
1.905655386E1,-1.292124242E-1,9.944570541E0,1.722832322E-1
1.906623855E1,-1.292124242E-1,9.949356079E0,1.770688742E-1
1.907592443E1,-1.052841991E-1,9.930213928E0,1.818545163E-1
1.908560928E1,-1.196411327E-1,9.925428391E0,1.866401732E-1
1.909529490E1,-1.148554832E-1,9.925428391E0,1.722832322E-1
1.910497969E1,-1.148554832E-1,9.915857315E0,1.770688742E-1
1.911466558E1,-1.244267747E-1,9.925428391E0,1.722832322E-1
1.912435245E1,-1.244267747E-1,9.925428391E0,1.866401732E-1
1.913403761E1,-1.339980662E-1,9.925428391E0,1.722832322E-1
1.914372287E1,-1.100698411E-1,9.930213928E0,1.722832322E-1
1.915340787E1,-1.244267747E-1,9.930213928E0,1.770688742E-1
1.916309381E1,-1.244267747E-1,9.934999466E0,1.770688742E-1
1.917277943E1,-1.435693651E-1,9.934999466E0,1.818545163E-1
1.918246402E1,-1.339980662E-1,9.915857315E0,1.770688742E-1
1.919214672E1,-1.339980662E-1,9.925428391E0,1.722832322E-1
1.920183037E1,-1.196411327E-1,9.930213928E0,1.722832322E-1
1.921151500E1,-1.196411327E-1,9.934999466E0,1.770688742E-1
1.922119907E1,-1.196411327E-1,9.934999466E0,1.722832322E-1
1.923088313E1,-1.244267747E-1,9.934999466E0,1.770688742E-1
1.924056704E1,-1.100698411E-1,9.915857315E0,1.722832322E-1
1.925025105E1,-1.196411327E-1,9.934999466E0,1.914258152E-1
1.925993605E1,-1.435693651E-1,9.949356079E0,1.818545163E-1
1.926961933E1,-1.148554832E-1,9.939785004E0,1.818545163E-1
1.927930381E1,-1.148554832E-1,9.915857315E0,1.770688742E-1
1.928898776E1,-1.292124242E-1,9.939785004E0,1.722832322E-1
1.929867157E1,-1.292124242E-1,9.920642853E0,1.818545163E-1
1.930835521E1,-1.100698411E-1,9.949356079E0,1.818545163E-1
1.931803980E1,-1.196411327E-1,9.925428391E0,1.770688742E-1
1.932772485E1,-1.052841991E-1,9.925428391E0,1.818545163E-1
1.933740985E1,-1.244267747E-1,9.934999466E0,1.818545163E-1
1.934709620E1,-1.339980662E-1,9.939785004E0,1.770688742E-1
1.935678099E1,-1.244267747E-1,9.925428391E0,1.818545163E-1
1.936646438E1,-1.292124242E-1,9.930213928E0,1.866401732E-1
1.937614813E1,-1.292124242E-1,9.944570541E0,1.818545163E-1
1.938583219E1,-1.196411327E-1,9.939785004E0,1.722832322E-1
1.939551563E1,-1.244267747E-1,9.915857315E0,1.818545163E-1
1.940519886E1,-1.244267747E-1,9.939785004E0,1.770688742E-1
1.941488344E1,-1.196411327E-1,9.920642853E0,1.722832322E-1
1.942456714E1,-1.387837082E-1,9.939785004E0,1.674975902E-1
1.943425152E1,-1.339980662E-1,9.939785004E0,1.770688742E-1
1.944393474E1,-1.100698411E-1,9.939785004E0,1.722832322E-1
1.945361829E1,-1.196411327E-1,9.930213928E0,1.818545163E-1
1.946330303E1,-1.148554832E-1,9.930213928E0,1.722832322E-1
1.947298813E1,-1.292124242E-1,9.930213928E0,1.722832322E-1
1.948267198E1,-1.196411327E-1,9.939785004E0,1.722832322E-1
1.949235636E1,-1.244267747E-1,9.934999466E0,1.818545163E-1
1.950203875E1,-1.339980662E-1,9.939785004E0,1.770688742E-1
1.951172323E1,-1.148554832E-1,9.934999466E0,1.722832322E-1
1.952140724E1,-1.244267747E-1,9.920642853E0,1.914258152E-1
1.953109089E1,-1.196411327E-1,9.930213928E0,1.818545163E-1
1.954077547E1,-1.387837082E-1,9.939785004E0,1.866401732E-1
1.955046120E1,-1.339980662E-1,9.930213928E0,1.818545163E-1
1.956014709E1,-1.148554832E-1,9.934999466E0,1.818545163E-1
1.956983292E1,-1.148554832E-1,9.930213928E0,1.770688742E-1
1.957951902E1,-1.196411327E-1,9.930213928E0,1.770688742E-1
1.958920480E1,-1.148554832E-1,9.939785004E0,1.770688742E-1
1.959889089E1,-1.148554832E-1,9.930213928E0,1.770688742E-1
1.960857485E1,-1.292124242E-1,9.920642853E0,1.770688742E-1
1.961825959E1,-1.196411327E-1,9.920642853E0,1.770688742E-1
1.962794391E1,-1.339980662E-1,9.939785004E0,1.866401732E-1
1.963762865E1,-1.244267747E-1,9.930213928E0,1.818545163E-1
1.964731396E1,-1.100698411E-1,9.925428391E0,1.770688742E-1
1.965699844E1,-1.244267747E-1,9.925428391E0,1.770688742E-1
1.966668287E1,-1.292124242E-1,9.930213928E0,1.914258152E-1
1.967636844E1,-1.196411327E-1,9.930213928E0,1.722832322E-1
1.968605433E1,-1.196411327E-1,9.925428391E0,1.722832322E-1
1.969573797E1,-1.196411327E-1,9.939785004E0,1.866401732E-1
1.970542245E1,-1.148554832E-1,9.925428391E0,1.866401732E-1
1.971510818E1,-1.244267747E-1,9.925428391E0,1.722832322E-1
1.972479214E1,-1.292124242E-1,9.934999466E0,1.770688742E-1
1.973447620E1,-1.244267747E-1,9.920642853E0,1.914258152E-1
1.974416047E1,-1.339980662E-1,9.934999466E0,1.818545163E-1
1.975384474E1,-1.292124242E-1,9.925428391E0,1.674975902E-1
1.976352907E1,-1.339980662E-1,9.920642853E0,1.579262912E-1
1.977321417E1,-1.100698411E-1,9.939785004E0,1.866401732E-1
