"Time (s)","Acceleration x (m/s^2)","Acceleration y (m/s^2)","Acceleration z (m/s^2)"
4.411267900E-2,-1.655833244E0,1.177268744E0,9.351150513E0
5.398637700E-2,-1.622333765E0,1.263410330E0,9.193224907E0
6.385991800E-2,-1.670190215E0,1.406979680E0,9.671789169E0
7.373252300E-2,-1.780260086E0,1.234696507E0,9.930213928E0
8.360486600E-2,-1.775474429E0,1.272981644E0,1.000199890E1
9.347762700E-2,-1.689332843E0,1.115055323E0,9.891928673E0
1.033510120E-1,-1.387837172E0,7.752745152E-1,9.609575272E0
1.132249180E-1,-1.138983607E0,3.972085714E-1,9.767501831E0
1.230983040E-1,-1.067198873E0,2.584248483E-1,9.834501266E0
1.329727830E-1,-1.057627559E0,2.536391914E-1,9.614361763E0
1.428458040E-1,-9.762716293E-1,3.254238665E-1,9.810572624E0
1.527195540E-1,-9.571290612E-1,4.354937077E-1,1.037527943E1
1.625939290E-1,-9.810572863E-1,5.599204898E-1,1.057149029E1
1.724672100E-1,-1.043270707E0,6.556333899E-1,1.048056316E1
1.823410120E-1,-1.086341500E0,7.513462901E-1,1.052841949E1
1.922131480E-1,-1.043270707E0,8.949156404E-1,1.069113159E1
2.020872100E-1,-9.954141974E-1,9.332008362E-1,1.061934662E1
2.119609080E-1,-8.901300430E-1,8.709874153E-1,1.030827999E1
2.218337730E-1,-8.901300430E-1,1.464407444E0,9.523433685E0
2.317066370E-1,-9.667003751E-1,1.789831281E0,8.930013657E0
2.415803350E-1,-8.039883971E-1,1.598405480E0,8.757730484E0
2.514521580E-1,-6.364908218E-1,1.301695466E0,8.824729919E0
2.613252310E-1,-5.168496966E-1,1.076770186E0,8.839086533E0
2.711985120E-1,-4.881358147E-1,8.662018180E-1,8.772088051E0
2.810719500E-1,-4.737788737E-1,5.742774606E-1,8.920442581E0
2.909463770E-1,-4.019941986E-1,1.387837082E-1,9.322437286E0
3.008188020E-1,-3.110669553E-1,-4.881358147E-1,1.020778179E1
3.106933330E-1,-2.297109663E-1,-1.028913736E0,1.097827053E1
3.205676560E-1,-1.148554832E-1,-1.325623751E0,1.083948612E1
3.304417700E-1,-3.828516230E-2,-1.406979680E0,1.014078236E1
3.403158330E-1,-6.699903309E-2,-1.459621787E0,9.245866776E0
3.501881770E-1,-2.823530734E-1,-1.426122308E0,7.556533813E0
3.600626040E-1,-5.503492355E-1,-1.679761529E0,6.953542709E0
3.699366140E-1,-5.694918036E-1,-2.215753794E0,7.905886173E0
3.798112490E-1,-3.589234054E-1,-2.526820660E0,9.556933403E0
3.896854680E-1,-5.742774159E-2,-1.473978758E0,1.019820976E1
3.995593740E-1,-3.158525825E-1,2.297109663E-1,9.600004196E0
4.094327080E-1,-4.450650215E-1,1.737189293E0,9.595218658E0
4.193056770E-1,-4.211367965E-1,2.321038008E0,1.017906761E1
4.291799990E-1,3.110669553E-1,2.105684042E0,1.021735287E1
4.390541660E-1,-9.571290761E-2,2.091326952E0,9.250652313E0
4.489272390E-1,-6.221339107E-1,1.708475351E0,9.154939651E0
4.588010930E-1,-1.191625714E0,5.168496966E-1,1.006421185E1
4.686738540E-1,-1.086341500E0,-1.698904037E0,1.037049294E1
4.784857810E-1,-8.901300430E-1,-3.297309637E0,9.992427826E0
4.881666140E-1,-8.518448472E-1,-2.450250387E0,9.729216576E0
4.978463540E-1,-6.699903607E-1,-3.110669553E-1,1.020299530E1
5.075259370E-1,-2.919243574E-1,1.067198873E0,1.068634605E1
5.172048430E-1,-4.450650215E-1,1.914258122E0,1.013599682E1
5.268835930E-1,-7.274180651E-1,2.086541414E0,9.461220741E0
5.365633850E-1,-9.475577474E-1,1.880758643E0,9.288937569E0
5.462438020E-1,-7.944171429E-1,1.373480201E0,9.384650230E0
5.559228120E-1,-7.561319470E-1,1.086341500E0,9.068798065E0
5.656025520E-1,-8.901300430E-1,7.800601721E-1,9.255437851E0
5.752830720E-1,-9.906286001E-1,4.211367965E-1,1.001156998E1
5.849631240E-1,-1.014556766E0,6.029912829E-1,1.075813103E1
5.946437490E-1,-1.024128079E0,1.052842021E0,1.051406288E1
6.043235930E-1,-1.014556766E0,1.373480201E0,1.005464077E1
6.140037490E-1,-9.906286001E-1,1.536192179E0,9.796216011E0
6.236822390E-1,-1.000199914E0,1.335195065E0,9.676574707E0
6.333623430E-1,-8.422735929E-1,1.129412293E0,9.714859962E0
6.430420310E-1,-1.052841991E-1,1.105484009E0,1.004028416E1
6.527207810E-1,-2.919243574E-1,1.344766378E0,9.839286804E0
6.624012490E-1,-6.843472719E-1,2.081755638E0,9.226723671E0
6.720806770E-1,-5.168496966E-1,1.737189293E0,9.777072906E0
6.817599990E-1,-6.891329288E-1,1.000199914E0,1.024606609E1
6.914404160E-1,-6.221339107E-1,1.928615093E0,1.005942631E1
7.011180200E-1,-2.727817893E-1,2.545963287E0,9.360722542E0
7.107959890E-1,-7.178468257E-2,1.957328916E0,9.293723106E0
7.204757290E-1,-4.785645287E-3,1.603191137E0,8.748159409E0
7.301561970E-1,-1.244267747E-1,1.741974831E0,8.599804878E0
7.398349990E-1,-1.004985496E-1,2.062613010E0,8.575876236E0
7.495143740E-1,-1.292124242E-1,2.029113531E0,9.107083321E0
7.591928640E-1,-4.737788737E-1,2.033899307E0,9.040083885E0
7.688727600E-1,-6.173482537E-1,2.143969059E0,8.824729919E0
7.785514060E-1,-5.024927258E-1,2.148754835E0,8.791230202E0
7.882296350E-1,-1.962114573E-1,2.172683001E0,8.700303078E0
7.979071350E-1,9.571290761E-2,2.201396942E0,8.250452042E0
8.075853640E-1,2.679961324E-1,2.134397745E0,7.695317745E0
8.172642700E-1,2.727817893E-1,1.794616938E0,7.590033531E0
8.269436450E-1,1.818545163E-1,1.641476393E0,8.082955360E0
8.366229680E-1,5.742774159E-2,1.665404558E0,8.800801277E0
8.463018740E-1,-1.818545163E-1,1.794616938E0,9.332008362E0
8.559820310E-1,-3.110669553E-1,2.210968018E0,9.231510162E0
8.656611970E-1,1.722832322E-1,1.808973908E0,9.279366493E0
8.753398950E-1,-1.435693651E-1,1.631905079E0,8.987442017E0
8.850191140E-1,-2.105683982E-1,1.847259045E0,8.666803360E0
8.946984890E-1,-2.153540403E-1,1.957328916E0,8.652446747E0
9.043774470E-1,-8.614161611E-2,1.832902193E0,8.714659691E0
9.140571350E-1,1.100698411E-1,1.579262972E0,9.078369141E0
9.237381240E-1,3.876372576E-1,1.469193101E0,9.738788605E0
9.334173430E-1,7.178468108E-1,1.607976794E0,1.029392338E1
9.430956240E-1,8.183453679E-1,1.765903115E0,1.049491978E1
9.527749990E-1,6.221339107E-1,1.761117458E0,1.021256733E1
9.624557290E-1,4.402793646E-1,1.641476393E0,9.887143135E0
9.721355200E-1,3.349951804E-1,1.292124271E0,1.009292603E1
9.818144790E-1,3.110669553E-1,9.954141974E-1,1.029392338E1
9.914942700E-1,3.924229145E-1,9.667003751E-1,1.039920712E1
1.001174322E0,5.120640397E-1,7.226324677E-1,1.054277611E1
1.010853802E0,8.087740541E-1,4.929214716E-1,1.059541893E1
1.020533645E0,1.316052437E0,4.833501875E-1,1.080598736E1
1.030214166E0,1.335195065E0,4.833501875E-1,1.049013424E1
1.039894843E0,1.306481123E0,3.732803464E-1,1.033220863E1
1.049575781E0,1.383051515E0,1.674975902E-1,1.029392338E1
1.059254218E0,1.416550994E0,1.004985496E-1,9.963713646E0
1.068932656E0,1.497906923E0,1.435693540E-2,9.911071777E0
1.078612656E0,1.584048629E0,-1.866401732E-1,9.992427826E0
1.088292916E0,1.713261008E0,-3.780659735E-1,1.010728264E1
1.097973281E0,1.794616938E0,-6.843472719E-1,1.063370419E1
1.107654427E0,1.536192179E0,-7.369893789E-1,1.049013424E1
1.117335937E0,1.430907965E0,-8.709874153E-1,1.033220863E1
1.127016406E0,1.579262972E0,-1.095912814E0,1.023649502E1
1.136697812E0,1.708475351E0,-1.253839016E0,9.872786522E0
1.146378593E0,1.832902193E0,-1.387837172E0,9.657432556E0
1.156059270E0,1.789831281E0,-1.335195065E0,9.571290970E0
1.165740729E0,1.689332843E0,-1.196411371E0,9.724431038E0
1.175421718E0,1.564906001E0,-1.287338614E0,1.022692394E1
1.185102864E0,1.234696507E0,-1.421336651E0,1.037049294E1
1.194782499E0,1.086341500E0,-1.545763373E0,1.064327526E1
1.204462187E0,9.858429432E-1,-1.627119422E0,1.092084217E1
1.214142708E0,1.033699393E0,-1.536192179E0,1.071984577E1
1.223822968E0,1.158126116E0,-1.301695466E0,1.060020447E1
1.233503333E0,1.081555843E0,-9.954141974E-1,1.029392338E1
1.243184322E0,1.143769264E0,-9.667003751E-1,1.015992451E1
1.252864947E0,1.220339537E0,-1.076770186E0,1.024128056E1
1.262545104E0,1.272981644E0,-1.038485050E0,1.046620655E1
1.272225677E0,1.383051515E0,-8.279166222E-1,1.072463131E1
1.281907187E0,1.555334687E0,-6.699903607E-1,1.070548820E1
1.291588072E0,1.770688772E0,-5.072783828E-1,1.049491978E1
1.301269322E0,1.904686809E0,-3.014956415E-1,1.001635551E1
1.310950468E0,2.005185366E0,-3.828516230E-2,9.456435204E0
1.320630364E0,2.143969059E0,5.742774159E-2,9.131011009E0
1.330310624E0,2.282752752E0,9.571290575E-3,9.198010445E0
1.339991718E0,2.364108801E0,4.785645381E-2,9.528220177E0
1.349672760E0,2.273181438E0,4.402793646E-1,9.485149384E0
1.359352656E0,2.900100946E0,3.876372576E-1,9.681360245E0
1.369032239E0,2.924029350E0,3.684946895E-1,9.724431038E0
1.378713489E0,3.163311481E0,7.034898400E-1,9.686145782E0
1.388395520E0,3.029313564E0,9.619147182E-1,9.609575272E0
1.398076197E0,2.837887764E0,1.014556766E0,9.576076508E0
1.407755312E0,2.632104874E0,1.119840980E0,9.690931320E0
1.417435520E0,2.785245657E0,8.901300430E-1,1.020778179E1
1.427114791E0,2.622533560E0,1.024128079E0,9.997213364E0
1.436796354E0,2.986242771E0,8.327022791E-1,1.010249710E1
1.446477343E0,3.005385160E0,4.402793646E-1,1.010249710E1
1.456158958E0,2.900100946E0,6.221339107E-1,9.978070259E0
1.465839791E0,2.880958557E0,6.939185858E-1,9.719645500E0
1.475520052E0,2.900100946E0,3.349951804E-1,9.470791817E0
1.485201145E0,3.278167009E0,-4.785645287E-3,9.360722542E0
1.494883124E0,3.235096216E0,1.914258115E-2,9.193224907E0
1.504564843E0,3.254238844E0,-1.914258152E-1,9.547362328E0
1.514244791E0,3.048455954E0,-9.571290575E-3,9.614361763E0
1.523925520E0,2.818745136E0,1.387837082E-1,9.355937004E0
1.533606614E0,3.086741209E0,-2.057827413E-1,9.513862610E0
1.543285520E0,3.196810961E0,-3.014956415E-1,9.585647583E0
1.552966458E0,3.340380430E0,-2.632105052E-1,9.298508644E0
1.562646510E0,3.536591768E0,-4.833501875E-1,9.494720459E0
1.572326979E0,4.134797573E0,-2.967100143E-1,6.589833736E0
1.582007031E0,3.125026464E0,-2.158325911E0,1.245703506E1
1.591688593E0,2.397608280E0,-5.838487148E-1,9.375079155E0
1.601370260E0,2.842673302E0,1.100698411E-1,1.010728264E1
1.611050781E0,2.818745136E0,0.000000000E0,9.494720459E0
1.620732135E0,2.517249346E0,-1.076770186E0,1.054756260E1
1.630412031E0,2.172683001E0,-4.067798555E-1,9.207581520E0
1.640093020E0,2.732603550E0,-4.881358147E-1,1.006899738E1
1.649774218E0,2.378465652E0,-5.599204898E-1,9.872786522E0
1.659455364E0,1.507478237E0,-4.881358147E-1,9.351150513E0
1.669136354E0,2.732603550E0,-8.614161611E-1,9.585647583E0
1.678815833E0,2.622533560E0,6.221338734E-2,9.695717812E0
1.688497604E0,2.258824587E0,3.014956415E-1,9.006584167E0
1.698177291E0,2.277967215E0,2.871387079E-2,9.135796547E0
1.707857031E0,2.373680115E0,-8.614161611E-2,9.341579437E0
1.717537395E0,2.368894339E0,-5.264209956E-2,9.470791817E0
1.727218906E0,2.277967215E0,1.387837082E-1,9.533005714E0
1.736899583E0,2.249253273E0,1.244267747E-1,9.748359680E0
1.746580833E0,2.187039852E0,1.770688742E-1,1.025085258E1
1.756260937E0,2.057827473E0,3.349951804E-1,1.032742214E1
1.765942395E0,1.579262972E0,1.024128079E0,8.968298912E0
1.775622916E0,1.153340459E0,6.939185858E-1,8.216953278E0
1.785304062E0,9.906286001E-1,2.392822653E-1,8.250452042E0
1.794984218E0,1.373480201E0,-2.297109663E-1,8.240880966E0
1.804664114E0,1.789831281E0,-5.264210105E-1,7.824530125E0
1.814343645E0,4.153940201E0,-8.106883049E0,8.767302513E0
1.824024374E0,2.249253273E0,1.301695466E0,1.167218876E1
1.833704791E0,2.014756680E0,1.062413216E0,1.893679810E1
1.843384947E0,3.445664644E-1,-3.541377485E-1,1.724746513E1
1.853064374E0,4.594219327E-1,-1.000199914E0,9.202795982E0
1.862743958E0,2.009970993E-1,-1.674975902E-1,5.881557941E0
1.872422864E0,9.714859724E-1,6.077769399E-1,8.456234932E0
1.882103229E0,4.354937077E-1,1.392622828E0,1.036570740E1
1.891783749E0,-5.551348329E-1,1.507478237E0,1.023649502E1
1.901465052E0,-1.440479279E0,2.100898266E0,9.954142570E0
1.911144322E0,-1.201196909E0,1.301695466E0,1.045184898E1
1.920824687E0,-3.876372576E-1,-1.674975902E-1,1.033220863E1
1.930505677E0,9.571290761E-2,-1.052842021E0,8.829515457E0
1.940186302E0,3.972085714E-1,-1.244267821E0,7.173682213E0
1.949866562E0,9.092726111E-1,-1.148554921E0,6.393621922E0
1.959546979E0,1.071984529E0,-3.541377485E-1,5.441278458E0
1.969226614E0,1.383051515E0,3.206382394E-1,5.757131100E0
1.978907656E0,3.259024382E0,-1.033220863E1,7.776673794E0
1.988586979E0,1.450050473E0,1.986042738E0,8.642875671E0
1.998267187E0,1.531406522E0,2.450250387E0,1.161954689E1
2.007947812E0,5.613562107E0,3.881158352E0,3.325066376E1
2.017628177E0,1.966900229E0,-7.671389580E0,3.326023579E0
2.027309635E0,-1.244267747E-1,2.656033039E0,2.775674343E0
2.036990677E0,1.225125194E0,4.225724697E0,1.610848236E1
2.046670520E0,1.383051515E0,-6.139982700E0,1.110748291E1
2.056350624E0,-1.115055323E0,4.106083870E0,5.130211830E0
2.066031354E0,1.718046665E0,-3.416950703E0,1.349551964E1
2.075711979E0,-8.614161611E-2,1.923829436E0,7.762316704E0
2.085392031E0,-1.292124271E0,-7.752745152E-1,1.272981644E0
2.095072760E0,-1.067198873E0,2.163111687E0,5.111069202E0
2.104752760E0,-8.566305041E-1,-2.522035122E0,7.929814339E0
2.114433489E0,-1.397408366E0,1.100698471E0,1.598405480E0
2.124114427E0,1.718046665E0,-9.040083885E0,1.367258835E1
2.133795156E0,-2.344966233E-1,1.373480201E0,2.924029350E1
2.143475781E0,-2.249253243E-1,1.622333765E0,1.488814259E1
2.153154843E0,2.201396823E-1,3.177668571E0,9.700503349E0
2.162834635E0,5.551348329E-1,2.191825628E0,9.978070259E0
2.172513906E0,5.072783828E-1,1.363908887E0,1.016949654E1
2.182192968E0,1.627119333E-1,9.523434043E-1,9.667003632E0
2.191871614E0,-3.397808075E-1,5.790630579E-1,9.973284721E0
2.201551458E0,-3.780659735E-1,3.062812984E-1,9.906285286E0
2.211232916E0,7.657032460E-2,-4.498506486E-1,1.000678444E1
2.220912812E0,8.997012973E-1,-1.603191137E0,9.810572624E0
2.230592395E0,1.024128079E0,-7.369893789E-1,9.757930756E0
2.240272708E0,1.019342422E0,-2.823530734E-1,9.858428955E0
2.249953020E0,4.354937077E-1,-1.339980662E-1,9.863214493E0
2.259632447E0,-1.627119333E-1,-9.571290575E-3,9.882357597E0
2.269312083E0,-1.387837082E-1,-9.571290575E-3,9.868000984E0
2.278991458E0,-1.483550072E-1,4.785645287E-3,9.887143135E0
2.288671354E0,-1.483550072E-1,-4.785645287E-3,9.887143135E0
2.298350781E0,-1.339980662E-1,-9.571290575E-3,9.901499748E0
2.308030677E0,-1.339980662E-1,1.435693540E-2,9.882357597E0
2.317709427E0,-1.387837082E-1,0.000000000E0,9.882357597E0
2.327388958E0,-1.531406492E-1,4.785645287E-3,9.887143135E0
2.337068906E0,-1.387837082E-1,4.785645287E-3,9.877572060E0
2.346749166E0,-1.483550072E-1,-4.785645287E-3,9.887143135E0
2.356429010E0,-1.435693651E-1,0.000000000E0,9.882357597E0
2.366107760E0,-1.435693651E-1,4.785645287E-3,9.872786522E0
2.375788333E0,-1.435693651E-1,9.571290575E-3,9.877572060E0
2.385468697E0,-1.531406492E-1,4.785645287E-3,9.872786522E0
2.395149322E0,-1.579262912E-1,0.000000000E0,9.872786522E0
2.404830156E0,-1.292124242E-1,-4.785645287E-3,9.872786522E0
2.414510312E0,-1.531406492E-1,0.000000000E0,9.882357597E0
2.424190104E0,-1.292124242E-1,0.000000000E0,9.882357597E0
2.433869791E0,-1.483550072E-1,-1.435693540E-2,9.877572060E0
2.443550312E0,-1.435693651E-1,0.000000000E0,9.872786522E0
2.453230312E0,-1.579262912E-1,1.914258115E-2,9.868000984E0
2.462909687E0,-1.339980662E-1,0.000000000E0,9.877572060E0
2.472589479E0,-1.435693651E-1,1.435693540E-2,9.877572060E0
2.482268645E0,-1.387837082E-1,-1.435693540E-2,9.877572060E0
2.491948906E0,-1.531406492E-1,4.785645287E-3,9.877572060E0
2.501629322E0,-1.627119333E-1,9.571290575E-3,9.877572060E0
2.511309374E0,-1.483550072E-1,-9.571290575E-3,9.891928673E0
2.520989166E0,-1.435693651E-1,-9.571290575E-3,9.868000984E0
2.530669166E0,-1.435693651E-1,1.435693540E-2,9.877572060E0
2.540349322E0,-1.483550072E-1,-4.785645287E-3,9.868000984E0
2.550030416E0,-1.387837082E-1,9.571290575E-3,9.872786522E0
2.559710520E0,-1.339980662E-1,1.914258115E-2,9.872786522E0
2.569390885E0,-1.435693651E-1,0.000000000E0,9.868000984E0
2.579072343E0,-1.292124242E-1,0.000000000E0,9.872786522E0
2.588753072E0,-1.531406492E-1,0.000000000E0,9.930213928E0
2.598433593E0,-1.435693651E-1,1.435693651E-1,9.887143135E0
2.608115052E0,-5.072783828E-1,1.038485050E0,1.010249710E1
2.617795052E0,-1.129412293E0,1.234696507E0,1.011685371E1
2.627474166E0,-2.689532757E0,-1.038485050E0,9.915857315E0
2.637154739E0,-2.842673302E0,-1.076770186E0,9.217152596E0
2.646833281E0,-4.977070987E-1,-1.818545163E-1,1.002114105E1
2.656513802E0,7.704889178E-1,-4.785645287E-3,9.796216011E0
2.666192083E0,1.646261930E0,9.092725813E-2,9.896714211E0
2.675871458E0,9.954141974E-1,6.221338734E-2,9.858428955E0
2.685551614E0,1.196411327E-1,4.307080805E-2,9.872786522E0
2.695233072E0,-4.977070987E-1,2.392822690E-2,9.872786522E0
2.704915312E0,-5.359922647E-1,3.349951655E-2,9.868000984E0
2.714595624E0,1.976471543E0,6.699903309E-2,1.003071213E1
2.724277031E0,1.387837172E0,1.100698411E-1,9.786644936E0
2.733957552E0,-1.531406492E-1,3.828516230E-2,9.805787086E0
2.743637239E0,-1.387837082E-1,1.914258115E-2,9.863214493E0
2.753317499E0,-1.435693651E-1,2.871387079E-2,9.858428955E0
2.762997552E0,-1.435693651E-1,3.349951655E-2,9.877572060E0
2.772675989E0,-1.674975902E-1,1.914258115E-2,9.887143135E0
2.782354218E0,-1.387837082E-1,2.392822690E-2,9.887143135E0
2.792032552E0,-1.292124242E-1,2.392822690E-2,9.891928673E0
2.801711145E0,-1.387837082E-1,3.349951655E-2,9.872786522E0
2.811390937E0,-1.244267747E-1,3.349951655E-2,9.858428955E0
2.821071458E0,-1.435693651E-1,2.392822690E-2,9.872786522E0
2.830751041E0,-1.339980662E-1,3.828516230E-2,9.872786522E0
2.840430624E0,-1.387837082E-1,2.871387079E-2,9.868000984E0
2.850111354E0,-1.292124242E-1,2.392822690E-2,9.887143135E0
2.859789739E0,-1.339980662E-1,3.349951655E-2,9.877572060E0
2.869467447E0,-1.387837082E-1,1.914258115E-2,9.872786522E0
2.879146874E0,-1.435693651E-1,2.392822690E-2,9.868000984E0
2.888826197E0,-1.292124242E-1,2.871387079E-2,9.868000984E0
2.898506197E0,-1.579262912E-1,3.828516230E-2,9.877572060E0
2.908185364E0,-1.387837082E-1,2.392822690E-2,9.868000984E0
2.917864895E0,-1.387837082E-1,1.435693540E-2,9.872786522E0
2.927546093E0,-1.435693651E-1,3.349951655E-2,9.877572060E0
2.937226666E0,-1.483550072E-1,2.871387079E-2,9.877572060E0
2.946905624E0,-1.387837082E-1,2.392822690E-2,9.872786522E0
2.956585156E0,-1.387837082E-1,4.785645287E-3,9.858428955E0
2.966264687E0,-1.196411327E-1,-9.571290575E-3,9.848857880E0
2.975943958E0,-3.828516230E-2,-3.349951655E-2,9.848857880E0
2.985624687E0,-2.584248483E-1,5.264209956E-2,9.853643417E0
2.995304531E0,-1.770688742E-1,4.307080805E-2,9.891928673E0
3.004983958E0,-1.483550072E-1,9.092725813E-2,9.925428391E0
3.014664062E0,-1.435693651E-1,3.828516230E-2,9.891928673E0
3.024343802E0,-1.435693651E-1,2.871387079E-2,9.872786522E0
3.034024583E0,-1.579262912E-1,2.871387079E-2,9.882357597E0
3.043703177E0,-1.531406492E-1,2.392822690E-2,9.877572060E0
3.053382395E0,-1.435693651E-1,1.914258115E-2,9.877572060E0
3.063061249E0,-1.387837082E-1,2.871387079E-2,9.872786522E0
3.072741093E0,-1.483550072E-1,1.435693540E-2,9.863214493E0
3.082420208E0,-1.387837082E-1,2.392822690E-2,9.887143135E0
3.092100468E0,-1.435693651E-1,1.914258115E-2,9.877572060E0
3.101779687E0,-1.387837082E-1,1.914258115E-2,9.882357597E0
3.111458645E0,-1.435693651E-1,1.435693540E-2,9.872786522E0
3.121139843E0,-1.292124242E-1,2.392822690E-2,9.872786522E0
3.130819062E0,-1.483550072E-1,3.828516230E-2,9.882357597E0
3.140498177E0,-1.387837082E-1,2.392822690E-2,9.872786522E0
3.150177760E0,-1.483550072E-1,1.435693540E-2,9.868000984E0
3.159858333E0,-1.483550072E-1,2.871387079E-2,9.887143135E0
3.169537864E0,-1.435693651E-1,2.392822690E-2,9.891928673E0
3.179217135E0,-1.435693651E-1,1.435693540E-2,9.877572060E0
3.188896562E0,-1.435693651E-1,2.871387079E-2,9.872786522E0
3.198576458E0,-1.579262912E-1,2.392822690E-2,9.863214493E0
3.208255104E0,-1.387837082E-1,3.828516230E-2,9.868000984E0
3.217933489E0,-1.435693651E-1,2.392822690E-2,9.887143135E0
3.227614999E0,-1.483550072E-1,1.914258115E-2,9.887143135E0
3.237293645E0,-1.387837082E-1,9.571290575E-3,9.882357597E0
3.246973229E0,-1.483550072E-1,1.914258115E-2,9.877572060E0
3.256654895E0,-1.579262912E-1,3.349951655E-2,9.863214493E0
3.266335052E0,-1.531406492E-1,2.871387079E-2,9.872786522E0
3.276013385E0,-1.435693651E-1,2.871387079E-2,9.887143135E0
3.285693177E0,-1.435693651E-1,2.392822690E-2,9.877572060E0
3.295373072E0,-1.339980662E-1,1.435693540E-2,9.868000984E0
3.305054270E0,-1.579262912E-1,4.785645381E-2,9.877572060E0
3.314733177E0,-1.387837082E-1,4.785645381E-2,9.882357597E0
3.324414427E0,-1.339980662E-1,2.392822690E-2,9.882357597E0
3.334094479E0,-1.387837082E-1,1.914258115E-2,9.882357597E0
3.343773697E0,-1.531406492E-1,2.871387079E-2,9.877572060E0
3.353453385E0,-1.435693651E-1,1.914258115E-2,9.882357597E0
3.363133697E0,-1.483550072E-1,3.349951655E-2,9.891928673E0
3.372813229E0,-1.531406492E-1,1.435693540E-2,9.863214493E0
3.382492083E0,-1.435693651E-1,2.871387079E-2,9.877572060E0
3.392170989E0,-1.435693651E-1,2.871387079E-2,9.868000984E0
3.401850624E0,-1.435693651E-1,2.871387079E-2,9.877572060E0
3.411529999E0,-1.339980662E-1,1.914258115E-2,9.877572060E0
3.421211614E0,-1.339980662E-1,2.871387079E-2,9.887143135E0
3.430891770E0,-1.483550072E-1,2.392822690E-2,9.877572060E0
3.440571406E0,-1.292124242E-1,2.392822690E-2,9.877572060E0
3.450249374E0,-1.435693651E-1,2.871387079E-2,9.872786522E0
3.459926718E0,-1.435693651E-1,9.571290575E-3,9.863214493E0
3.469605312E0,-1.387837082E-1,1.914258115E-2,9.882357597E0
3.479285364E0,-1.387837082E-1,2.871387079E-2,9.868000984E0
3.488963802E0,-1.483550072E-1,1.914258115E-2,9.872786522E0
3.498642552E0,-1.387837082E-1,1.914258115E-2,9.868000984E0
3.508319791E0,-1.435693651E-1,1.435693540E-2,9.872786522E0
3.517999895E0,-1.339980662E-1,1.914258115E-2,9.882357597E0
3.527679166E0,-1.339980662E-1,2.392822690E-2,9.877572060E0
3.537357968E0,-1.579262912E-1,1.914258115E-2,9.877572060E0
3.547037187E0,-1.435693651E-1,3.349951655E-2,9.863214493E0
3.556717031E0,-1.483550072E-1,2.871387079E-2,9.882357597E0
3.566395937E0,-1.387837082E-1,2.871387079E-2,9.868000984E0
3.576075364E0,-1.387837082E-1,1.914258115E-2,9.882357597E0
3.585754166E0,-1.579262912E-1,2.392822690E-2,9.868000984E0
3.595434114E0,-1.387837082E-1,2.871387079E-2,9.877572060E0
3.605113072E0,-1.387837082E-1,1.914258115E-2,9.872786522E0
3.614792864E0,-1.435693651E-1,1.435693540E-2,9.882357597E0
3.624471093E0,-1.339980662E-1,2.392822690E-2,9.863214493E0
3.634149635E0,-1.627119333E-1,2.871387079E-2,9.882357597E0
3.643829635E0,-1.627119333E-1,1.914258115E-2,9.872786522E0
3.653509166E0,-1.435693651E-1,2.871387079E-2,9.863214493E0
3.663189739E0,-1.387837082E-1,4.785645287E-3,9.882357597E0
3.672870468E0,-1.483550072E-1,1.914258115E-2,9.863214493E0
3.682549999E0,-1.339980662E-1,1.435693540E-2,9.882357597E0
3.692229114E0,-1.339980662E-1,1.435693540E-2,9.872786522E0
3.701907864E0,-1.387837082E-1,1.435693540E-2,9.887143135E0
3.711589270E0,-1.483550072E-1,1.914258115E-2,9.882357597E0
3.721268645E0,-1.339980662E-1,1.435693540E-2,9.877572060E0
3.730946510E0,-1.244267747E-1,2.871387079E-2,9.858428955E0
3.740625364E0,-1.483550072E-1,2.392822690E-2,9.882357597E0
3.750305781E0,-1.244267747E-1,3.349951655E-2,9.877572060E0
3.759985468E0,-1.339980662E-1,1.435693540E-2,9.882357597E0
3.769664791E0,-1.387837082E-1,2.392822690E-2,9.872786522E0
3.779344687E0,-1.435693651E-1,1.914258115E-2,9.877572060E0
3.789024739E0,-1.435693651E-1,2.871387079E-2,9.877572060E0
3.798705104E0,-1.483550072E-1,2.392822690E-2,9.882357597E0
3.808385468E0,-1.387837082E-1,4.785645287E-3,9.877572060E0
3.818065520E0,-1.531406492E-1,2.392822690E-2,9.872786522E0
3.827743385E0,-1.387837082E-1,1.435693540E-2,9.868000984E0
3.837423020E0,-1.435693651E-1,1.435693540E-2,9.872786522E0
3.847101406E0,-1.531406492E-1,1.914258115E-2,9.872786522E0
3.856779947E0,-1.387837082E-1,1.435693540E-2,9.882357597E0
3.866460416E0,-1.387837082E-1,3.828516230E-2,9.868000984E0
3.876141354E0,-1.483550072E-1,4.307080805E-2,9.877572060E0
3.885821979E0,-1.531406492E-1,3.828516230E-2,9.868000984E0
3.895500885E0,-1.531406492E-1,9.571290575E-3,9.868000984E0
3.905179791E0,-1.292124242E-1,1.914258115E-2,9.872786522E0
3.914859374E0,-1.435693651E-1,2.392822690E-2,9.868000984E0
3.924537760E0,-1.627119333E-1,1.435693540E-2,9.868000984E0
3.934219687E0,-1.339980662E-1,3.349951655E-2,9.877572060E0
3.943900208E0,-1.292124242E-1,1.914258115E-2,9.882357597E0
3.953580052E0,-1.387837082E-1,2.871387079E-2,9.877572060E0
3.963259999E0,-1.435693651E-1,2.871387079E-2,9.872786522E0
3.972940416E0,-1.435693651E-1,2.871387079E-2,9.868000984E0
3.982618437E0,-1.483550072E-1,3.349951655E-2,9.868000984E0
3.992296666E0,-1.435693651E-1,2.871387079E-2,9.868000984E0
4.001976302E0,-1.531406492E-1,3.349951655E-2,9.877572060E0
4.011654947E0,-1.579262912E-1,3.828516230E-2,9.877572060E0
4.021335260E0,-1.627119333E-1,1.435693540E-2,9.891928673E0
4.031014374E0,-1.483550072E-1,2.392822690E-2,9.877572060E0
4.040694531E0,-1.483550072E-1,2.871387079E-2,9.877572060E0
4.050374479E0,-1.435693651E-1,1.435693540E-2,9.863214493E0
4.060053906E0,-1.387837082E-1,3.828516230E-2,9.863214493E0
4.069735104E0,-1.483550072E-1,1.435693540E-2,9.877572060E0
4.079414999E0,-1.387837082E-1,2.392822690E-2,9.863214493E0
4.089094843E0,-1.387837082E-1,2.392822690E-2,9.877572060E0
4.098774687E0,-1.387837082E-1,1.914258115E-2,9.872786522E0
4.108453385E0,-1.483550072E-1,2.871387079E-2,9.872786522E0
4.118133333E0,-1.435693651E-1,1.435693540E-2,9.868000984E0
4.127813541E0,-1.435693651E-1,9.571290575E-3,9.882357597E0
4.137493697E0,-1.387837082E-1,9.571290575E-3,9.877572060E0
4.147175208E0,-1.483550072E-1,2.871387079E-2,9.882357597E0
4.156854583E0,-1.483550072E-1,2.392822690E-2,9.868000984E0
4.166534895E0,-1.483550072E-1,2.871387079E-2,9.858428955E0
4.176215833E0,-1.339980662E-1,9.571290575E-3,9.877572060E0
4.185895520E0,-1.579262912E-1,9.571290575E-3,9.872786522E0
4.195574739E0,-1.339980662E-1,2.871387079E-2,9.877572060E0
4.205254322E0,-1.387837082E-1,3.349951655E-2,9.877572060E0
4.214934062E0,-1.339980662E-1,1.914258115E-2,9.882357597E0
4.224614322E0,-1.292124242E-1,3.349951655E-2,9.882357597E0
4.234292552E0,-1.435693651E-1,9.571290575E-3,9.882357597E0
4.243973281E0,-1.387837082E-1,3.828516230E-2,9.863214493E0
4.253652083E0,-1.387837082E-1,2.392822690E-2,9.882357597E0
4.263331927E0,-1.387837082E-1,9.571290575E-3,9.868000984E0
4.273013020E0,-1.579262912E-1,1.435693540E-2,9.868000984E0
4.282694635E0,-1.387837082E-1,3.349951655E-2,9.887143135E0
4.292374270E0,-1.435693651E-1,3.349951655E-2,9.877572060E0
4.302054791E0,-1.435693651E-1,2.392822690E-2,9.868000984E0
4.311733020E0,-1.483550072E-1,9.571290575E-3,9.868000984E0
4.321412395E0,-1.387837082E-1,4.307080805E-2,9.882357597E0
4.331091822E0,-1.339980662E-1,1.914258115E-2,9.877572060E0
4.340771979E0,-1.387837082E-1,2.871387079E-2,9.872786522E0
4.350451145E0,-1.435693651E-1,1.914258115E-2,9.872786522E0
4.360133124E0,-1.531406492E-1,1.914258115E-2,9.877572060E0
4.369812135E0,-1.292124242E-1,2.871387079E-2,9.863214493E0
4.379489947E0,-1.435693651E-1,1.914258115E-2,9.891928673E0
4.389171145E0,-1.292124242E-1,1.914258115E-2,9.877572060E0
4.398852656E0,-1.292124242E-1,1.914258115E-2,9.877572060E0
4.408534062E0,-1.531406492E-1,2.871387079E-2,9.891928673E0
4.418213593E0,-1.339980662E-1,2.392822690E-2,9.891928673E0
4.427892916E0,-1.339980662E-1,3.349951655E-2,9.877572060E0
4.437571406E0,-1.435693651E-1,2.871387079E-2,9.872786522E0
4.447250312E0,-1.387837082E-1,1.435693540E-2,9.882357597E0
4.456929322E0,-1.387837082E-1,1.435693540E-2,9.877572060E0
4.466606458E0,-1.339980662E-1,3.828516230E-2,9.877572060E0
4.476284479E0,-1.483550072E-1,4.307080805E-2,9.887143135E0
4.485963645E0,-1.435693651E-1,2.871387079E-2,9.872786522E0
4.495642447E0,-1.435693651E-1,1.914258115E-2,9.887143135E0
4.505321666E0,-1.387837082E-1,4.307080805E-2,9.887143135E0
4.515000677E0,-1.387837082E-1,3.828516230E-2,9.882357597E0
4.524679687E0,-1.339980662E-1,3.349951655E-2,9.863214493E0
4.534359114E0,-1.435693651E-1,1.435693540E-2,9.872786522E0
4.544038072E0,-1.387837082E-1,2.392822690E-2,9.882357597E0
4.553717395E0,-1.387837082E-1,2.392822690E-2,9.868000984E0
4.563395572E0,-1.387837082E-1,2.392822690E-2,9.863214493E0
4.573073541E0,-1.483550072E-1,1.435693540E-2,9.887143135E0
4.582750364E0,-1.483550072E-1,4.307080805E-2,9.882357597E0
4.592430208E0,-1.483550072E-1,2.871387079E-2,9.877572060E0
4.602108749E0,-1.244267747E-1,9.571290575E-3,9.872786522E0
4.611788645E0,-1.244267747E-1,1.914258115E-2,9.872786522E0
4.621468333E0,-1.435693651E-1,3.349951655E-2,9.877572060E0
4.631147708E0,-1.292124242E-1,2.392822690E-2,9.872786522E0
4.640827708E0,-1.531406492E-1,3.349951655E-2,9.877572060E0
4.650507812E0,-1.435693651E-1,1.435693540E-2,9.872786522E0
4.660188229E0,-1.244267747E-1,3.349951655E-2,9.863214493E0
4.669868177E0,-1.483550072E-1,2.392822690E-2,9.868000984E0
4.679548333E0,-1.339980662E-1,3.349951655E-2,9.858428955E0
4.689228333E0,-1.483550072E-1,3.349951655E-2,9.872786522E0
4.698907708E0,-1.483550072E-1,1.435693540E-2,9.877572060E0
4.708587291E0,-1.435693651E-1,1.914258115E-2,9.872786522E0
4.718265781E0,-1.387837082E-1,1.914258115E-2,9.882357597E0
4.727944114E0,-1.292124242E-1,9.571290575E-3,9.877572060E0
4.737624218E0,-1.387837082E-1,3.828516230E-2,9.868000984E0
4.747301927E0,-1.339980662E-1,1.435693540E-2,9.872786522E0
4.756982499E0,-1.435693651E-1,9.571290575E-3,9.882357597E0
4.766663906E0,-1.387837082E-1,3.828516230E-2,9.877572060E0
4.776344270E0,-1.387837082E-1,2.871387079E-2,9.877572060E0
4.786024531E0,-1.387837082E-1,3.349951655E-2,9.868000984E0
4.795704791E0,-1.483550072E-1,2.871387079E-2,9.887143135E0
4.805384687E0,-1.387837082E-1,2.871387079E-2,9.877572060E0
4.815064531E0,-1.483550072E-1,1.435693540E-2,9.872786522E0
4.824745260E0,-1.387837082E-1,3.828516230E-2,9.872786522E0
4.834425520E0,-1.531406492E-1,0.000000000E0,9.868000984E0
4.844104583E0,-1.244267747E-1,2.392822690E-2,9.887143135E0
4.853783645E0,-1.387837082E-1,2.392822690E-2,9.863214493E0
4.863464322E0,-1.387837082E-1,1.914258115E-2,9.877572060E0
4.873144322E0,-1.435693651E-1,3.349951655E-2,9.868000984E0
4.882824114E0,-1.387837082E-1,1.435693540E-2,9.863214493E0
4.892504635E0,-1.435693651E-1,9.571290575E-3,9.872786522E0
4.902185833E0,-1.579262912E-1,2.392822690E-2,9.877572060E0
4.911866458E0,-1.531406492E-1,1.914258115E-2,9.882357597E0
4.921546145E0,-1.292124242E-1,2.871387079E-2,9.863214493E0
4.931226822E0,-1.435693651E-1,1.914258115E-2,9.877572060E0
4.940908489E0,-1.387837082E-1,1.435693540E-2,9.877572060E0
4.950588854E0,-1.387837082E-1,2.871387079E-2,9.877572060E0
4.960269062E0,-1.387837082E-1,1.914258115E-2,9.868000984E0
4.969948749E0,-1.339980662E-1,3.349951655E-2,9.868000984E0
4.979628802E0,-1.435693651E-1,3.828516230E-2,9.863214493E0
4.989308906E0,-1.627119333E-1,2.392822690E-2,9.877572060E0
4.998990572E0,-1.579262912E-1,1.435693540E-2,9.891928673E0
5.008671666E0,-1.435693651E-1,1.914258115E-2,9.882357597E0
5.018352760E0,-1.483550072E-1,1.435693540E-2,9.882357597E0
5.028034843E0,-1.435693651E-1,2.392822690E-2,9.877572060E0
5.037715572E0,-1.483550072E-1,9.571290575E-3,9.872786522E0
5.047395364E0,-1.579262912E-1,2.392822690E-2,9.882357597E0
5.057075468E0,-1.387837082E-1,3.828516230E-2,9.882357597E0
5.066755677E0,-1.435693651E-1,1.914258115E-2,9.872786522E0
5.076434531E0,-1.579262912E-1,1.914258115E-2,9.877572060E0
5.086114531E0,-1.292124242E-1,3.828516230E-2,9.877572060E0
5.095794374E0,-1.483550072E-1,3.349951655E-2,9.872786522E0
5.105473489E0,-1.387837082E-1,1.435693540E-2,9.872786522E0
5.115154010E0,-1.435693651E-1,3.828516230E-2,9.877572060E0
5.124834479E0,-1.387837082E-1,1.435693540E-2,9.872786522E0
5.134514010E0,-1.483550072E-1,2.392822690E-2,9.872786522E0
5.144194374E0,-1.435693651E-1,3.349951655E-2,9.863214493E0
5.153874687E0,-1.435693651E-1,2.392822690E-2,9.887143135E0
5.163553958E0,-1.483550072E-1,9.571290575E-3,9.891928673E0
5.173233802E0,-1.339980662E-1,2.392822690E-2,9.877572060E0
5.182913124E0,-1.387837082E-1,2.871387079E-2,9.877572060E0
5.192593177E0,-1.387837082E-1,1.914258115E-2,9.872786522E0
5.202274374E0,-1.339980662E-1,2.871387079E-2,9.882357597E0
5.211953749E0,-1.483550072E-1,1.914258115E-2,9.877572060E0
5.221634531E0,-1.483550072E-1,1.435693540E-2,9.877572060E0
5.231315156E0,-1.435693651E-1,1.914258115E-2,9.863214493E0
5.240995468E0,-1.435693651E-1,1.914258115E-2,9.887143135E0
5.250675677E0,-1.339980662E-1,1.914258115E-2,9.877572060E0
5.260354531E0,-1.627119333E-1,1.435693540E-2,9.877572060E0
5.270034322E0,-1.387837082E-1,1.914258115E-2,9.882357597E0
5.279714114E0,-1.339980662E-1,1.435693540E-2,9.872786522E0
5.289393229E0,-1.244267747E-1,2.392822690E-2,9.882357597E0
5.299073802E0,-1.483550072E-1,2.392822690E-2,9.872786522E0
5.308753749E0,-1.531406492E-1,3.349951655E-2,9.882357597E0
5.318432812E0,-1.387837082E-1,3.349951655E-2,9.872786522E0
5.328112031E0,-1.483550072E-1,2.871387079E-2,9.877572060E0
5.337791822E0,-1.244267747E-1,2.871387079E-2,9.858428955E0
5.347470677E0,-1.483550072E-1,1.914258115E-2,9.877572060E0
5.357151197E0,-1.531406492E-1,9.571290575E-3,9.872786522E0
5.366831718E0,-1.483550072E-1,4.307080805E-2,9.863214493E0
5.376511614E0,-1.435693651E-1,2.392822690E-2,9.887143135E0
5.386189843E0,-1.435693651E-1,2.392822690E-2,9.882357597E0
5.395868489E0,-1.579262912E-1,3.828516230E-2,9.868000984E0
5.405548072E0,-1.435693651E-1,2.871387079E-2,9.872786522E0
5.415227656E0,-1.387837082E-1,1.914258115E-2,9.872786522E0
5.424907135E0,-1.387837082E-1,3.349951655E-2,9.868000984E0
5.434587864E0,-1.435693651E-1,2.871387079E-2,9.877572060E0
5.444265885E0,-1.387837082E-1,1.914258115E-2,9.872786522E0
5.453945364E0,-1.435693651E-1,2.392822690E-2,9.868000984E0
5.463623749E0,-1.387837082E-1,1.914258115E-2,9.877572060E0
5.473302916E0,-1.387837082E-1,2.871387079E-2,9.868000984E0
5.482982656E0,-1.387837082E-1,2.871387079E-2,9.863214493E0
5.492661354E0,-1.435693651E-1,1.914258115E-2,9.872786522E0
5.502339635E0,-1.531406492E-1,2.392822690E-2,9.868000984E0
5.512018958E0,-1.435693651E-1,2.871387079E-2,9.868000984E0
5.521697604E0,-1.435693651E-1,1.914258115E-2,9.877572060E0
5.531377499E0,-1.435693651E-1,1.435693540E-2,9.868000984E0
5.541058281E0,-1.483550072E-1,9.571290575E-3,9.872786522E0
5.550738072E0,-1.387837082E-1,2.392822690E-2,9.872786522E0
5.560418385E0,-1.483550072E-1,3.349951655E-2,9.891928673E0
5.570097708E0,-1.531406492E-1,9.571290575E-3,9.868000984E0
5.579776927E0,-1.531406492E-1,2.871387079E-2,9.863214493E0
5.589456510E0,-1.483550072E-1,2.392822690E-2,9.887143135E0
5.599135364E0,-1.339980662E-1,1.914258115E-2,9.877572060E0
5.608815364E0,-1.435693651E-1,2.392822690E-2,9.882357597E0
5.618494374E0,-1.387837082E-1,9.571290575E-3,9.872786522E0
5.628173124E0,-1.387837082E-1,1.914258115E-2,9.882357597E0
5.637851979E0,-1.483550072E-1,3.349951655E-2,9.872786522E0
5.647531302E0,-1.339980662E-1,2.392822690E-2,9.863214493E0
5.657210208E0,-1.483550072E-1,3.349951655E-2,9.868000984E0
5.666889322E0,-1.722832322E-1,2.871387079E-2,9.882357597E0
5.676568645E0,-1.435693651E-1,2.392822690E-2,9.872786522E0
5.686247552E0,-1.483550072E-1,1.914258115E-2,9.877572060E0
5.695926562E0,-1.435693651E-1,4.785645287E-3,9.872786522E0
5.705606562E0,-1.435693651E-1,3.828516230E-2,9.891928673E0
5.715286874E0,-1.483550072E-1,3.349951655E-2,9.868000984E0
5.724966718E0,-1.483550072E-1,3.828516230E-2,9.877572060E0
5.734645781E0,-1.435693651E-1,2.392822690E-2,9.868000984E0
5.744323802E0,-1.292124242E-1,2.871387079E-2,9.858428955E0
5.754002447E0,-1.339980662E-1,2.392822690E-2,9.882357597E0
5.763681041E0,-1.483550072E-1,1.914258115E-2,9.868000984E0
5.773359687E0,-1.531406492E-1,1.435693540E-2,9.872786522E0
5.783038854E0,-1.435693651E-1,1.914258115E-2,9.872786522E0
5.792717499E0,-1.435693651E-1,2.392822690E-2,9.872786522E0
5.802396510E0,-1.531406492E-1,1.914258115E-2,9.882357597E0
5.812075364E0,-1.579262912E-1,1.435693540E-2,9.877572060E0
5.821753541E0,-1.531406492E-1,3.828516230E-2,9.877572060E0
5.831433489E0,-1.292124242E-1,2.392822690E-2,9.877572060E0
5.841112239E0,-1.483550072E-1,1.914258115E-2,9.872786522E0
5.850791510E0,-1.339980662E-1,1.914258115E-2,9.872786522E0
5.860470781E0,-1.292124242E-1,1.914258115E-2,9.887143135E0
5.870149322E0,-1.531406492E-1,1.435693540E-2,9.877572060E0
5.879828072E0,-1.387837082E-1,2.871387079E-2,9.872786522E0
5.889507135E0,-1.387837082E-1,3.828516230E-2,9.877572060E0
5.899187031E0,-1.531406492E-1,1.914258115E-2,9.872786522E0
5.908866614E0,-1.531406492E-1,9.571290575E-3,9.887143135E0
5.918546874E0,-1.387837082E-1,1.435693540E-2,9.872786522E0
5.928224739E0,-1.483550072E-1,1.435693540E-2,9.877572060E0
5.937904739E0,-1.292124242E-1,3.349951655E-2,9.872786522E0
5.947585052E0,-1.387837082E-1,3.349951655E-2,9.863214493E0
5.957264687E0,-1.435693651E-1,1.914258115E-2,9.877572060E0
5.966944583E0,-1.531406492E-1,2.392822690E-2,9.877572060E0
5.976625312E0,-1.579262912E-1,2.871387079E-2,9.872786522E0
5.986306562E0,-1.244267747E-1,3.349951655E-2,9.868000984E0
5.995987083E0,-1.339980662E-1,2.871387079E-2,9.863214493E0
6.005665833E0,-1.435693651E-1,9.571290575E-3,9.872786522E0
6.015345520E0,-1.387837082E-1,2.392822690E-2,9.872786522E0
6.025024687E0,-1.435693651E-1,2.392822690E-2,9.863214493E0
6.034703229E0,-1.387837082E-1,1.914258115E-2,9.872786522E0
6.044384791E0,-1.483550072E-1,2.392822690E-2,9.872786522E0
6.054065520E0,-1.483550072E-1,1.435693540E-2,9.882357597E0
6.063746197E0,-1.483550072E-1,2.392822690E-2,9.887143135E0
6.073426822E0,-1.387837082E-1,3.349951655E-2,9.872786522E0
6.083106666E0,-1.339980662E-1,2.871387079E-2,9.877572060E0
6.092786666E0,-1.339980662E-1,3.349951655E-2,9.877572060E0
6.102466354E0,-1.339980662E-1,2.871387079E-2,9.877572060E0
6.112146979E0,-1.531406492E-1,2.392822690E-2,9.882357597E0
6.121825937E0,-1.339980662E-1,1.914258115E-2,9.868000984E0
6.131504687E0,-1.483550072E-1,1.914258115E-2,9.872786522E0
6.141184687E0,-1.435693651E-1,1.435693540E-2,9.868000984E0
6.150863385E0,-1.483550072E-1,2.392822690E-2,9.872786522E0
6.160541562E0,-1.435693651E-1,1.435693540E-2,9.868000984E0
6.170221302E0,-1.387837082E-1,9.571290575E-3,9.868000984E0
6.179900520E0,-1.579262912E-1,3.828516230E-2,9.887143135E0
6.189579791E0,-1.387837082E-1,4.307080805E-2,9.877572060E0
6.199258906E0,-1.387837082E-1,3.349951655E-2,9.872786522E0
6.208937656E0,-1.483550072E-1,1.435693540E-2,9.868000984E0
6.218617343E0,-1.387837082E-1,3.349951655E-2,9.868000984E0
6.228295885E0,-1.292124242E-1,1.435693540E-2,9.877572060E0
6.237976406E0,-1.435693651E-1,2.871387079E-2,9.887143135E0
6.247656406E0,-1.435693651E-1,1.914258115E-2,9.882357597E0
6.257336041E0,-1.531406492E-1,2.871387079E-2,9.882357597E0
6.267016041E0,-1.627119333E-1,1.914258115E-2,9.872786522E0
6.276695677E0,-1.531406492E-1,1.435693540E-2,9.877572060E0
6.286376041E0,-1.435693651E-1,4.307080805E-2,9.872786522E0
6.296055781E0,-1.531406492E-1,3.349951655E-2,9.872786522E0
6.305736927E0,-1.339980662E-1,9.571290575E-3,9.872786522E0
6.315417187E0,-1.531406492E-1,3.349951655E-2,9.877572060E0
6.325095937E0,-1.579262912E-1,3.828516230E-2,9.872786522E0
6.334774843E0,-1.387837082E-1,2.871387079E-2,9.887143135E0
6.344454635E0,-1.387837082E-1,3.828516230E-2,9.877572060E0
6.354134270E0,-1.435693651E-1,1.435693540E-2,9.868000984E0
6.363814791E0,-1.387837082E-1,2.392822690E-2,9.896714211E0
6.373494947E0,-1.339980662E-1,2.392822690E-2,9.877572060E0
6.383173958E0,-1.435693651E-1,2.871387079E-2,9.877572060E0
6.392852916E0,-1.292124242E-1,2.871387079E-2,9.863214493E0
6.402531874E0,-1.531406492E-1,3.349951655E-2,9.882357597E0
6.412211874E0,-1.435693651E-1,2.392822690E-2,9.868000984E0
6.421892499E0,-1.483550072E-1,2.392822690E-2,9.887143135E0
6.431572343E0,-1.579262912E-1,1.914258115E-2,9.872786522E0
6.441250989E0,-1.531406492E-1,2.871387079E-2,9.877572060E0
6.450930104E0,-1.387837082E-1,2.871387079E-2,9.868000984E0
6.460609635E0,-1.387837082E-1,1.435693540E-2,9.872786522E0
6.470288437E0,-1.483550072E-1,1.914258115E-2,9.872786522E0
6.479969166E0,-1.435693651E-1,2.392822690E-2,9.891928673E0
6.489648906E0,-1.483550072E-1,1.914258115E-2,9.868000984E0
6.499328177E0,-1.531406492E-1,3.828516230E-2,9.863214493E0
6.509006979E0,-1.531406492E-1,2.871387079E-2,9.877572060E0
6.518686302E0,-1.244267747E-1,1.914258115E-2,9.858428955E0
6.528365624E0,-1.387837082E-1,2.392822690E-2,9.877572060E0
6.538044895E0,-1.435693651E-1,1.914258115E-2,9.887143135E0
6.547724062E0,-1.387837082E-1,2.871387079E-2,9.877572060E0
6.557403593E0,-1.627119333E-1,4.785645287E-3,9.872786522E0
6.567083229E0,-1.435693651E-1,2.392822690E-2,9.882357597E0
6.576763958E0,-1.722832322E-1,1.914258115E-2,9.877572060E0
6.586443124E0,-1.627119333E-1,1.914258115E-2,9.887143135E0
6.596123229E0,-1.435693651E-1,3.828516230E-2,9.882357597E0
6.605802916E0,-1.387837082E-1,1.914258115E-2,9.872786522E0
6.615482916E0,-1.339980662E-1,4.307080805E-2,9.882357597E0
6.625162083E0,-1.339980662E-1,2.392822690E-2,9.872786522E0
6.634841510E0,-1.483550072E-1,2.871387079E-2,9.877572060E0
6.644519895E0,-1.387837082E-1,2.871387079E-2,9.868000984E0
6.654198020E0,-1.579262912E-1,2.392822690E-2,9.877572060E0
6.663877083E0,-1.483550072E-1,3.349951655E-2,9.882357597E0
6.673555885E0,-1.387837082E-1,1.435693540E-2,9.877572060E0
6.683235781E0,-1.531406492E-1,1.435693540E-2,9.872786522E0
6.692916770E0,-1.531406492E-1,3.349951655E-2,9.868000984E0
6.702596302E0,-1.339980662E-1,3.349951655E-2,9.872786522E0
6.712276510E0,-1.483550072E-1,2.392822690E-2,9.877572060E0
6.721955416E0,-1.339980662E-1,1.914258115E-2,9.887143135E0
6.731634947E0,-1.435693651E-1,1.914258115E-2,9.872786522E0
6.741314479E0,-1.339980662E-1,2.392822690E-2,9.882357597E0
6.750993385E0,-1.531406492E-1,2.392822690E-2,9.882357597E0
6.760674687E0,-1.435693651E-1,1.435693540E-2,9.877572060E0
6.770355885E0,-1.292124242E-1,1.914258115E-2,9.858428955E0
6.780036562E0,-1.531406492E-1,2.871387079E-2,9.882357597E0
6.789716614E0,-1.435693651E-1,1.914258115E-2,9.872786522E0
6.799396406E0,-1.387837082E-1,2.392822690E-2,9.872786522E0
6.809075781E0,-1.387837082E-1,2.392822690E-2,9.872786522E0
6.818754114E0,-1.339980662E-1,3.828516230E-2,9.877572060E0
6.828433072E0,-1.531406492E-1,1.914258115E-2,9.872786522E0
6.838113020E0,-1.435693651E-1,2.871387079E-2,9.872786522E0
6.847793385E0,-1.387837082E-1,1.914258115E-2,9.868000984E0
6.857471874E0,-1.435693651E-1,1.914258115E-2,9.872786522E0
6.867151354E0,-1.435693651E-1,9.571290575E-3,9.887143135E0
6.876831197E0,-1.435693651E-1,2.392822690E-2,9.877572060E0
6.886510520E0,-1.483550072E-1,2.392822690E-2,9.877572060E0
6.896189687E0,-1.531406492E-1,2.392822690E-2,9.868000984E0
6.905869739E0,-1.387837082E-1,1.435693540E-2,9.882357597E0
6.915549843E0,-1.339980662E-1,9.571290575E-3,9.872786522E0
6.925229166E0,-1.292124242E-1,9.571290575E-3,9.863214493E0
6.934907812E0,-1.292124242E-1,4.785645287E-3,9.887143135E0
6.944586979E0,-1.483550072E-1,2.392822690E-2,9.882357597E0
6.954264114E0,-1.483550072E-1,2.392822690E-2,9.882357597E0
6.963943177E0,-1.387837082E-1,1.914258115E-2,9.882357597E0
6.973623489E0,-1.579262912E-1,2.392822690E-2,9.887143135E0
6.983303229E0,-1.292124242E-1,4.307080805E-2,9.868000984E0
6.992982447E0,-1.387837082E-1,5.264209956E-2,9.882357597E0
7.002661354E0,-1.339980662E-1,3.349951655E-2,9.868000984E0
7.012340729E0,-1.435693651E-1,1.914258115E-2,9.877572060E0
7.022021145E0,-1.387837082E-1,2.392822690E-2,9.882357597E0
7.031700937E0,-1.387837082E-1,3.349951655E-2,9.877572060E0
7.041381614E0,-1.579262912E-1,2.871387079E-2,9.872786522E0
7.051060729E0,-1.387837082E-1,2.392822690E-2,9.853643417E0
7.060739531E0,-1.387837082E-1,1.435693540E-2,9.872786522E0
7.070419635E0,-1.339980662E-1,2.871387079E-2,9.868000984E0
7.080099010E0,-1.387837082E-1,1.914258115E-2,9.877572060E0
7.089777031E0,-1.531406492E-1,3.349951655E-2,9.872786522E0
7.099455364E0,-1.196411327E-1,1.914258115E-2,9.877572060E0
7.109135677E0,-1.292124242E-1,2.392822690E-2,9.872786522E0
7.118815989E0,-1.435693651E-1,4.307080805E-2,9.863214493E0
7.128496093E0,-1.339980662E-1,1.914258115E-2,9.872786522E0
7.138174687E0,-1.435693651E-1,2.871387079E-2,9.882357597E0
7.147853593E0,-1.339980662E-1,3.828516230E-2,9.882357597E0
7.157531979E0,-1.387837082E-1,1.435693540E-2,9.882357597E0
7.167211041E0,-1.387837082E-1,1.914258115E-2,9.872786522E0
7.176891979E0,-1.292124242E-1,9.571290575E-3,9.882357597E0
7.186571197E0,-1.339980662E-1,1.435693540E-2,9.863214493E0
7.196249843E0,-1.435693651E-1,1.914258115E-2,9.877572060E0
7.205928385E0,-1.483550072E-1,2.392822690E-2,9.868000984E0
7.215609114E0,-1.339980662E-1,2.871387079E-2,9.872786522E0
7.225288489E0,-1.531406492E-1,2.871387079E-2,9.877572060E0
7.234968958E0,-1.387837082E-1,9.571290575E-3,9.877572060E0
7.244649895E0,-1.387837082E-1,2.871387079E-2,9.868000984E0
7.254330989E0,-1.483550072E-1,3.349951655E-2,9.882357597E0
7.264012343E0,-1.483550072E-1,9.571290575E-3,9.868000984E0
7.273692031E0,-1.339980662E-1,2.871387079E-2,9.863214493E0
7.283373229E0,-1.531406492E-1,1.435693540E-2,9.872786522E0
7.293053854E0,-1.483550072E-1,2.871387079E-2,9.872786522E0
7.302734427E0,-1.531406492E-1,2.871387079E-2,9.877572060E0
7.312413645E0,-1.483550072E-1,2.871387079E-2,9.872786522E0
7.322092968E0,-1.483550072E-1,1.435693540E-2,9.877572060E0
7.331773645E0,-1.435693651E-1,1.914258115E-2,9.882357597E0
7.341451354E0,-1.387837082E-1,2.392822690E-2,9.877572060E0
7.351130312E0,-1.387837082E-1,1.914258115E-2,9.868000984E0
7.360809583E0,-1.483550072E-1,2.392822690E-2,9.882357597E0
7.370488958E0,-1.292124242E-1,3.828516230E-2,9.868000984E0
7.380169218E0,-1.483550072E-1,3.828516230E-2,9.882357597E0
7.389848854E0,-1.531406492E-1,9.571290575E-3,9.868000984E0
7.399529166E0,-1.627119333E-1,2.871387079E-2,9.863214493E0
7.409208437E0,-1.292124242E-1,2.871387079E-2,9.872786522E0
7.418887760E0,-1.435693651E-1,4.785645287E-3,9.877572060E0
7.428567708E0,-1.435693651E-1,2.392822690E-2,9.872786522E0
7.438248020E0,-1.483550072E-1,3.349951655E-2,9.887143135E0
7.447928749E0,-1.435693651E-1,2.871387079E-2,9.877572060E0
7.457609166E0,-1.387837082E-1,2.871387079E-2,9.868000984E0
7.467288229E0,-1.292124242E-1,1.435693540E-2,9.872786522E0
7.476967968E0,-1.531406492E-1,2.392822690E-2,9.877572060E0
7.486648489E0,-1.483550072E-1,2.392822690E-2,9.882357597E0
7.496328437E0,-1.244267747E-1,2.871387079E-2,9.887143135E0
7.506009479E0,-1.292124242E-1,2.871387079E-2,9.872786522E0
7.515689895E0,-1.483550072E-1,2.392822690E-2,9.877572060E0
7.525371145E0,-1.483550072E-1,1.914258115E-2,9.872786522E0
7.535050781E0,-1.483550072E-1,1.914258115E-2,9.868000984E0
7.544729947E0,-1.435693651E-1,0.000000000E0,9.887143135E0
7.554410520E0,-1.579262912E-1,2.392822690E-2,9.868000984E0
7.564089739E0,-1.435693651E-1,1.435693540E-2,9.872786522E0
7.573768958E0,-1.531406492E-1,1.914258115E-2,9.863214493E0
7.583448645E0,-1.339980662E-1,1.435693540E-2,9.872786522E0
7.593130052E0,-1.387837082E-1,1.914258115E-2,9.872786522E0
7.602810520E0,-1.292124242E-1,2.392822690E-2,9.877572060E0
7.612489843E0,-1.435693651E-1,2.392822690E-2,9.863214493E0
7.622169322E0,-1.387837082E-1,2.392822690E-2,9.877572060E0
7.631849374E0,-1.244267747E-1,1.914258115E-2,9.872786522E0
7.641528489E0,-1.339980662E-1,1.914258115E-2,9.877572060E0
7.651208593E0,-1.387837082E-1,4.307080805E-2,9.882357597E0
7.660888541E0,-1.435693651E-1,2.871387079E-2,9.863214493E0
7.670568697E0,-1.483550072E-1,3.828516230E-2,9.863214493E0
7.680250729E0,-1.244267747E-1,1.435693540E-2,9.868000984E0
7.689929687E0,-1.435693651E-1,1.435693540E-2,9.891928673E0
7.699610156E0,-1.387837082E-1,9.571290575E-3,9.872786522E0
7.709289635E0,-1.483550072E-1,3.828516230E-2,9.882357597E0
7.718969635E0,-1.387837082E-1,1.435693540E-2,9.882357597E0
7.728649322E0,-1.435693651E-1,1.914258115E-2,9.882357597E0
7.738330364E0,-1.244267747E-1,2.392822690E-2,9.882357597E0
7.748009843E0,-1.387837082E-1,2.392822690E-2,9.868000984E0
7.757689218E0,-1.339980662E-1,1.914258115E-2,9.863214493E0
7.767370833E0,-1.387837082E-1,3.349951655E-2,9.872786522E0
7.777050572E0,-1.483550072E-1,2.871387079E-2,9.882357597E0
7.786729010E0,-1.435693651E-1,4.785645287E-3,9.882357597E0
7.796408645E0,-1.339980662E-1,4.785645287E-3,9.872786522E0
7.806088802E0,-1.339980662E-1,2.392822690E-2,9.863214493E0
7.815769479E0,-1.435693651E-1,1.914258115E-2,9.882357597E0
7.825449687E0,-1.292124242E-1,2.871387079E-2,9.858428955E0
7.835130104E0,-1.531406492E-1,1.435693540E-2,9.877572060E0
7.844811145E0,-1.435693651E-1,2.392822690E-2,9.872786522E0
7.854490937E0,-1.627119333E-1,2.392822690E-2,9.877572060E0
7.864171406E0,-1.387837082E-1,3.349951655E-2,9.882357597E0
7.873852447E0,-1.531406492E-1,1.435693540E-2,9.872786522E0
7.883532916E0,-1.339980662E-1,1.435693540E-2,9.872786522E0
7.893213489E0,-1.387837082E-1,2.871387079E-2,9.877572060E0
7.902894010E0,-1.435693651E-1,1.435693540E-2,9.877572060E0
7.912573802E0,-1.387837082E-1,1.914258115E-2,9.882357597E0
7.922254322E0,-1.196411327E-1,3.349951655E-2,9.872786522E0
7.931936249E0,-1.292124242E-1,1.914258115E-2,9.877572060E0
7.941615572E0,-1.435693651E-1,1.435693540E-2,9.887143135E0
7.951295572E0,-1.387837082E-1,9.571290575E-3,9.887143135E0
7.960975885E0,-1.387837082E-1,3.349951655E-2,9.882357597E0
7.970656197E0,-1.387837082E-1,3.349951655E-2,9.868000984E0
7.980336145E0,-1.339980662E-1,1.914258115E-2,9.882357597E0
7.990017395E0,-1.435693651E-1,2.392822690E-2,9.872786522E0
7.999697395E0,-1.435693651E-1,2.392822690E-2,9.863214493E0
8.009378541E0,-1.483550072E-1,1.435693540E-2,9.877572060E0
8.019059270E0,-1.387837082E-1,4.785645287E-3,9.887143135E0
8.028739322E0,-1.387837082E-1,9.571290575E-3,9.882357597E0
8.038418385E0,-1.387837082E-1,2.871387079E-2,9.877572060E0
8.048099687E0,-1.531406492E-1,2.871387079E-2,9.872786522E0
8.057779531E0,-1.387837082E-1,2.392822690E-2,9.872786522E0
8.067459843E0,-1.435693651E-1,1.435693540E-2,9.882357597E0
8.077138749E0,-1.435693651E-1,3.828516230E-2,9.872786522E0
8.086817343E0,-1.483550072E-1,3.828516230E-2,9.877572060E0
8.096497187E0,-1.483550072E-1,2.871387079E-2,9.882357597E0
8.106175885E0,-1.483550072E-1,9.571290575E-3,9.868000984E0
8.115855937E0,-1.339980662E-1,2.871387079E-2,9.872786522E0
8.125537604E0,-1.435693651E-1,2.392822690E-2,9.882357597E0
8.135217604E0,-1.339980662E-1,2.871387079E-2,9.868000984E0
8.144898385E0,-1.435693651E-1,0.000000000E0,9.868000984E0
8.154578489E0,-1.483550072E-1,2.392822690E-2,9.877572060E0
8.164258593E0,-1.339980662E-1,9.571290575E-3,9.872786522E0
8.173939062E0,-1.339980662E-1,1.435693540E-2,9.872786522E0
8.183619322E0,-1.292124242E-1,9.571290575E-3,9.882357597E0
8.193298697E0,-1.435693651E-1,1.914258115E-2,9.877572060E0
8.202980312E0,-1.339980662E-1,1.435693540E-2,9.872786522E0
8.212659739E0,-1.435693651E-1,3.828516230E-2,9.868000984E0
8.222338593E0,-1.387837082E-1,1.435693540E-2,9.872786522E0
8.232018749E0,-1.483550072E-1,2.392822690E-2,9.868000984E0
8.241698593E0,-1.627119333E-1,2.392822690E-2,9.887143135E0
8.251377812E0,-1.387837082E-1,2.392822690E-2,9.877572060E0
8.261056458E0,-1.435693651E-1,2.392822690E-2,9.877572060E0
8.270735312E0,-1.435693651E-1,1.914258115E-2,9.872786522E0
8.280414479E0,-1.531406492E-1,3.828516230E-2,9.877572060E0
8.290094374E0,-1.387837082E-1,3.349951655E-2,9.872786522E0
8.299773437E0,-1.483550072E-1,2.871387079E-2,9.887143135E0
8.309452604E0,-1.483550072E-1,2.392822690E-2,9.863214493E0
8.319130468E0,-1.435693651E-1,1.914258115E-2,9.887143135E0
8.328809322E0,-1.339980662E-1,1.914258115E-2,9.877572060E0
8.338488229E0,-1.435693651E-1,2.871387079E-2,9.868000984E0
8.348167395E0,-1.435693651E-1,2.392822690E-2,9.877572060E0
8.357847187E0,-1.531406492E-1,2.871387079E-2,9.877572060E0
8.367525468E0,-1.483550072E-1,9.571290575E-3,9.877572060E0
8.377202760E0,-1.387837082E-1,2.392822690E-2,9.877572060E0
8.386880937E0,-1.483550072E-1,9.571290575E-3,9.877572060E0
8.396559791E0,-1.339980662E-1,9.571290575E-3,9.868000984E0
8.406237552E0,-1.387837082E-1,1.914258115E-2,9.882357597E0
8.415915937E0,-1.579262912E-1,2.871387079E-2,9.887143135E0
8.425594062E0,-1.531406492E-1,1.435693540E-2,9.868000984E0
8.435273958E0,-1.387837082E-1,2.392822690E-2,9.868000984E0
8.444953124E0,-1.339980662E-1,2.871387079E-2,9.872786522E0
8.454632760E0,-1.387837082E-1,2.392822690E-2,9.877572060E0
8.464311614E0,-1.387837082E-1,2.871387079E-2,9.872786522E0
8.473992083E0,-1.435693651E-1,1.914258115E-2,9.882357597E0
8.483671041E0,-1.435693651E-1,2.871387079E-2,9.872786522E0
8.493351249E0,-1.435693651E-1,2.871387079E-2,9.868000984E0
8.503031302E0,-1.435693651E-1,2.871387079E-2,9.872786522E0
8.512710156E0,-1.483550072E-1,3.349951655E-2,9.872786522E0
8.522389374E0,-1.483550072E-1,3.349951655E-2,9.882357597E0
8.532069687E0,-1.435693651E-1,2.871387079E-2,9.868000984E0
8.541748749E0,-1.387837082E-1,2.392822690E-2,9.877572060E0
8.551427864E0,-1.483550072E-1,2.392822690E-2,9.877572060E0
8.561106197E0,-1.387837082E-1,3.828516230E-2,9.887143135E0
8.570786249E0,-1.387837082E-1,4.307080805E-2,9.863214493E0
8.580464635E0,-1.483550072E-1,1.435693540E-2,9.882357597E0
8.590143333E0,-1.339980662E-1,1.914258115E-2,9.872786522E0
8.599822239E0,-1.435693651E-1,1.914258115E-2,9.868000984E0
8.609501927E0,-1.292124242E-1,2.392822690E-2,9.872786522E0
8.619182968E0,-1.483550072E-1,2.392822690E-2,9.882357597E0
8.628862395E0,-1.387837082E-1,4.785645287E-3,9.882357597E0
8.638541979E0,-1.387837082E-1,2.871387079E-2,9.882357597E0
8.648220260E0,-1.339980662E-1,4.785645287E-3,9.877572060E0
8.657898749E0,-1.627119333E-1,2.392822690E-2,9.882357597E0
8.667578802E0,-1.531406492E-1,1.914258115E-2,9.877572060E0
8.677259531E0,-1.387837082E-1,2.871387079E-2,9.877572060E0
8.686941510E0,-1.435693651E-1,1.435693540E-2,9.887143135E0
8.696621562E0,-1.339980662E-1,2.392822690E-2,9.887143135E0
8.706300885E0,-1.387837082E-1,3.349951655E-2,9.868000984E0
8.715980989E0,-1.387837082E-1,0.000000000E0,9.877572060E0
8.725660729E0,-1.387837082E-1,2.392822690E-2,9.868000984E0
8.735339583E0,-1.483550072E-1,4.307080805E-2,9.877572060E0
8.745018802E0,-1.387837082E-1,3.349951655E-2,9.877572060E0
8.754697916E0,-1.435693651E-1,2.392822690E-2,9.877572060E0
8.764374947E0,-1.387837082E-1,1.435693540E-2,9.887143135E0
8.774054218E0,-1.627119333E-1,2.392822690E-2,9.877572060E0
8.783733593E0,-1.531406492E-1,2.392822690E-2,9.872786522E0
8.793412239E0,-1.483550072E-1,2.871387079E-2,9.887143135E0
8.803091510E0,-1.483550072E-1,2.392822690E-2,9.863214493E0
8.812769218E0,-1.387837082E-1,1.914258115E-2,9.872786522E0
8.822447447E0,-1.483550072E-1,2.392822690E-2,9.877572060E0
8.832129218E0,-1.483550072E-1,2.392822690E-2,9.882357597E0
8.841809531E0,-1.387837082E-1,2.392822690E-2,9.882357597E0
8.851489739E0,-1.339980662E-1,2.871387079E-2,9.882357597E0
8.861169791E0,-1.531406492E-1,1.914258115E-2,9.877572060E0
8.870850208E0,-1.531406492E-1,2.871387079E-2,9.868000984E0
8.880531562E0,-1.435693651E-1,2.871387079E-2,9.872786522E0
8.890212083E0,-1.292124242E-1,3.349951655E-2,9.877572060E0
8.899893124E0,-1.531406492E-1,3.349951655E-2,9.872786522E0
8.909573906E0,-1.435693651E-1,2.392822690E-2,9.868000984E0
8.919254218E0,-1.435693651E-1,1.914258115E-2,9.872786522E0
8.928934374E0,-1.387837082E-1,9.571290575E-3,9.872786522E0
8.938613593E0,-1.627119333E-1,9.571290575E-3,9.872786522E0
8.948293333E0,-1.435693651E-1,2.871387079E-2,9.877572060E0
8.957971197E0,-1.483550072E-1,2.871387079E-2,9.872786522E0
8.967651093E0,-1.483550072E-1,1.435693540E-2,9.877572060E0
8.977330989E0,-1.435693651E-1,1.914258115E-2,9.868000984E0
8.987010624E0,-1.435693651E-1,1.435693540E-2,9.872786522E0
8.996689218E0,-1.435693651E-1,2.392822690E-2,9.877572060E0
9.006368749E0,-1.483550072E-1,1.914258115E-2,9.882357597E0
9.016049895E0,-1.387837082E-1,2.392822690E-2,9.872786522E0
9.025730520E0,-1.483550072E-1,2.392822690E-2,9.877572060E0
9.035409947E0,-1.387837082E-1,2.871387079E-2,9.882357597E0
9.045089583E0,-1.483550072E-1,2.871387079E-2,9.877572060E0
9.054770416E0,-1.435693651E-1,0.000000000E0,9.877572060E0
9.064450572E0,-1.387837082E-1,4.785645287E-3,9.882357597E0
9.074131718E0,-1.435693651E-1,1.914258115E-2,9.877572060E0
9.083811770E0,-1.387837082E-1,2.871387079E-2,9.877572060E0
9.093491041E0,-1.435693651E-1,1.435693540E-2,9.887143135E0
9.103170260E0,-1.387837082E-1,1.914258115E-2,9.887143135E0
9.112851354E0,-1.435693651E-1,1.435693540E-2,9.877572060E0
9.122530833E0,-1.483550072E-1,2.392822690E-2,9.872786522E0
9.132210937E0,-1.483550072E-1,3.349951655E-2,9.882357597E0
9.141891822E0,-1.483550072E-1,1.914258115E-2,9.868000984E0
9.151571822E0,-1.579262912E-1,1.435693540E-2,9.882357597E0
9.161251406E0,-1.531406492E-1,2.392822690E-2,9.868000984E0
9.170932135E0,-1.292124242E-1,4.307080805E-2,9.872786522E0
9.180613749E0,-1.339980662E-1,2.871387079E-2,9.882357597E0
9.190293802E0,-1.435693651E-1,2.871387079E-2,9.877572060E0
9.199975104E0,-1.531406492E-1,2.871387079E-2,9.872786522E0
9.209654843E0,-1.244267747E-1,1.435693540E-2,9.877572060E0
9.219336354E0,-1.483550072E-1,1.914258115E-2,9.887143135E0
9.229016249E0,-1.387837082E-1,9.571290575E-3,9.882357597E0
9.238695468E0,-1.627119333E-1,2.871387079E-2,9.863214493E0
9.248375364E0,-1.531406492E-1,1.914258115E-2,9.887143135E0
9.258054687E0,-1.387837082E-1,2.871387079E-2,9.891928673E0
9.267733281E0,-1.531406492E-1,1.435693540E-2,9.872786522E0
9.277413072E0,-1.483550072E-1,2.871387079E-2,9.872786522E0
9.287092447E0,-1.244267747E-1,4.785645381E-2,9.872786522E0
9.296772031E0,-1.292124242E-1,3.349951655E-2,9.882357597E0
9.306452135E0,-1.531406492E-1,2.392822690E-2,9.863214493E0
9.316132656E0,-1.483550072E-1,1.435693540E-2,9.872786522E0
9.325813177E0,-1.387837082E-1,2.871387079E-2,9.882357597E0
9.335492656E0,-1.387837082E-1,3.828516230E-2,9.877572060E0
9.345171041E0,-1.531406492E-1,1.914258115E-2,9.882357597E0
9.354850416E0,-1.339980662E-1,1.914258115E-2,9.868000984E0
9.364528593E0,-1.339980662E-1,0.000000000E0,9.882357597E0
9.374207291E0,-1.435693651E-1,1.435693540E-2,9.887143135E0
9.383886510E0,-1.387837082E-1,1.435693540E-2,9.877572060E0
9.393565520E0,-1.387837082E-1,9.571290575E-3,9.887143135E0
9.403243229E0,-1.483550072E-1,4.785645287E-3,9.872786522E0
9.412922552E0,-1.483550072E-1,1.914258115E-2,9.882357597E0
9.422602395E0,-1.387837082E-1,2.392822690E-2,9.868000984E0
9.432282760E0,-1.339980662E-1,3.828516230E-2,9.868000984E0
9.441963177E0,-1.292124242E-1,1.914258115E-2,9.877572060E0
9.451642343E0,-1.435693651E-1,3.349951655E-2,9.882357597E0
9.461321822E0,-1.387837082E-1,2.392822690E-2,9.872786522E0
9.471000624E0,-1.387837082E-1,2.392822690E-2,9.887143135E0
9.480681145E0,-1.387837082E-1,2.392822690E-2,9.872786522E0
9.490361614E0,-1.292124242E-1,2.871387079E-2,9.872786522E0
9.500040520E0,-1.531406492E-1,1.435693540E-2,9.868000984E0
9.509720104E0,-1.435693651E-1,2.392822690E-2,9.882357597E0
9.519399999E0,-1.387837082E-1,9.571290575E-3,9.868000984E0
9.529080364E0,-1.387837082E-1,2.392822690E-2,9.872786522E0
9.538760052E0,-1.435693651E-1,1.435693540E-2,9.872786522E0
9.548440729E0,-1.339980662E-1,2.392822690E-2,9.872786522E0
9.558120833E0,-1.435693651E-1,1.914258115E-2,9.872786522E0
9.567801614E0,-1.531406492E-1,1.914258115E-2,9.877572060E0
9.577481979E0,-1.435693651E-1,1.435693540E-2,9.872786522E0
9.587160364E0,-1.435693651E-1,2.392822690E-2,9.863214493E0
9.596839479E0,-1.483550072E-1,2.871387079E-2,9.882357597E0
9.606519374E0,-1.292124242E-1,2.871387079E-2,9.882357597E0
9.616199739E0,-1.531406492E-1,2.392822690E-2,9.882357597E0
9.625879635E0,-1.435693651E-1,2.392822690E-2,9.872786522E0
9.635559739E0,-1.292124242E-1,2.392822690E-2,9.877572060E0
9.645239166E0,-1.483550072E-1,2.871387079E-2,9.882357597E0
9.654919218E0,-1.531406492E-1,2.392822690E-2,9.863214493E0
9.664600156E0,-1.387837082E-1,2.392822690E-2,9.877572060E0
9.674278802E0,-1.531406492E-1,2.392822690E-2,9.868000984E0
9.683958645E0,-1.483550072E-1,3.349951655E-2,9.868000984E0
9.693637656E0,-1.339980662E-1,1.435693540E-2,9.877572060E0
9.703318177E0,-1.387837082E-1,2.871387079E-2,9.872786522E0
9.712999114E0,-1.244267747E-1,1.914258115E-2,9.872786522E0
9.722679218E0,-1.387837082E-1,1.435693540E-2,9.863214493E0
9.732359374E0,-1.531406492E-1,2.392822690E-2,9.872786522E0
9.742040052E0,-1.435693651E-1,1.435693540E-2,9.887143135E0
9.751720624E0,-1.483550072E-1,2.871387079E-2,9.872786522E0
9.761400729E0,-1.531406492E-1,3.349951655E-2,9.882357597E0
9.771080052E0,-1.387837082E-1,1.435693540E-2,9.887143135E0
9.780760104E0,-1.339980662E-1,2.871387079E-2,9.868000984E0
9.790439270E0,-1.531406492E-1,3.828516230E-2,9.872786522E0
9.800119218E0,-1.435693651E-1,1.435693540E-2,9.872786522E0
9.809799479E0,-1.531406492E-1,1.914258115E-2,9.887143135E0
9.819478593E0,-1.339980662E-1,4.785645287E-3,9.877572060E0
9.829158124E0,-1.387837082E-1,2.392822690E-2,9.872786522E0
9.838838541E0,-1.339980662E-1,2.871387079E-2,9.882357597E0
9.848517864E0,-1.292124242E-1,1.914258115E-2,9.868000984E0
9.858197187E0,-1.387837082E-1,1.914258115E-2,9.877572060E0
9.867876718E0,-1.387837082E-1,1.435693540E-2,9.858428955E0
9.877555677E0,-1.292124242E-1,3.828516230E-2,9.868000984E0
9.887233854E0,-1.483550072E-1,1.914258115E-2,9.872786522E0
9.896913541E0,-1.435693651E-1,1.914258115E-2,9.868000984E0
9.906593437E0,-1.196411327E-1,2.392822690E-2,9.863214493E0
9.916273385E0,-1.483550072E-1,1.914258115E-2,9.872786522E0
9.925952447E0,-1.579262912E-1,1.914258115E-2,9.877572060E0
9.935632291E0,-1.531406492E-1,2.871387079E-2,9.877572060E0
9.945312239E0,-1.387837082E-1,3.828516230E-2,9.868000984E0
9.954991718E0,-1.435693651E-1,2.392822690E-2,9.872786522E0
9.964671406E0,-1.387837082E-1,2.871387079E-2,9.868000984E0
9.974351927E0,-1.387837082E-1,1.914258115E-2,9.882357597E0
9.984032447E0,-1.292124242E-1,9.571290575E-3,9.868000984E0
9.993711770E0,-1.435693651E-1,1.435693540E-2,9.877572060E0
1.000339172E1,-1.435693651E-1,2.871387079E-2,9.882357597E0
1.001307276E1,-1.435693651E-1,1.914258115E-2,9.877572060E0
1.002275359E1,-1.531406492E-1,1.914258115E-2,9.882357597E0
1.003243417E1,-1.387837082E-1,3.349951655E-2,9.877572060E0
1.004211411E1,-1.483550072E-1,1.914258115E-2,9.872786522E0
1.005179443E1,-1.483550072E-1,1.914258115E-2,9.872786522E0
1.006147458E1,-1.339980662E-1,2.392822690E-2,9.872786522E0
1.007115552E1,-1.435693651E-1,1.914258115E-2,9.868000984E0
1.008083474E1,-1.435693651E-1,1.435693540E-2,9.868000984E0
1.009051365E1,-1.387837082E-1,2.392822690E-2,9.872786522E0
1.010019161E1,-1.483550072E-1,9.571290575E-3,9.877572060E0
1.010986917E1,-1.196411327E-1,2.392822690E-2,9.868000984E0
1.011954760E1,-1.435693651E-1,2.871387079E-2,9.877572060E0
1.012922599E1,-1.339980662E-1,3.349951655E-2,9.882357597E0
1.013890349E1,-1.435693651E-1,3.828516230E-2,9.872786522E0
1.014858208E1,-1.387837082E-1,1.914258115E-2,9.882357597E0
1.015826193E1,-1.435693651E-1,1.914258115E-2,9.877572060E0
1.016794094E1,-1.435693651E-1,1.914258115E-2,9.882357597E0
1.017762062E1,-1.387837082E-1,1.914258115E-2,9.872786522E0
1.018730026E1,-1.483550072E-1,1.435693540E-2,9.882357597E0
1.019698021E1,-1.579262912E-1,1.914258115E-2,9.872786522E0
1.020665995E1,-1.387837082E-1,1.435693540E-2,9.872786522E0
1.021633859E1,-1.387837082E-1,4.307080805E-2,9.891928673E0
1.022601948E1,-1.435693651E-1,1.435693540E-2,9.877572060E0
1.023569792E1,-1.339980662E-1,1.914258115E-2,9.877572060E0
1.024537719E1,-1.483550072E-1,2.392822690E-2,9.877572060E0
1.025505687E1,-1.435693651E-1,2.871387079E-2,9.877572060E0
1.026473630E1,-1.579262912E-1,9.571290575E-3,9.877572060E0
1.027441625E1,-1.483550072E-1,1.435693540E-2,9.877572060E0
1.028409719E1,-1.483550072E-1,1.914258115E-2,9.872786522E0
1.029377693E1,-1.483550072E-1,2.392822690E-2,9.877572060E0
1.030345849E1,-1.435693651E-1,1.914258115E-2,9.877572060E0
1.031313703E1,-1.435693651E-1,3.349951655E-2,9.877572060E0
1.032281635E1,-1.435693651E-1,2.392822690E-2,9.882357597E0
1.033249729E1,-1.483550072E-1,2.871387079E-2,9.882357597E0
1.034217687E1,-1.435693651E-1,2.871387079E-2,9.872786522E0
1.035185604E1,-1.435693651E-1,3.349951655E-2,9.863214493E0
1.036153687E1,-1.435693651E-1,4.785645287E-3,9.882357597E0
1.037121614E1,-1.339980662E-1,1.914258115E-2,9.872786522E0
1.038089620E1,-1.435693651E-1,1.914258115E-2,9.858428955E0
1.039057729E1,-1.483550072E-1,2.871387079E-2,9.868000984E0
1.040025776E1,-1.435693651E-1,3.349951655E-2,9.891928673E0
1.040993729E1,-1.387837082E-1,2.871387079E-2,9.882357597E0
1.041961661E1,-1.339980662E-1,3.349951655E-2,9.891928673E0
1.042929599E1,-1.387837082E-1,1.914258115E-2,9.877572060E0
1.043897620E1,-1.483550072E-1,1.435693540E-2,9.877572060E0
1.044865635E1,-1.339980662E-1,2.392822690E-2,9.868000984E0
1.045833588E1,-1.483550072E-1,9.571290575E-3,9.872786522E0
1.046801562E1,-1.435693651E-1,2.871387079E-2,9.882357597E0
1.047769531E1,-1.435693651E-1,1.914258115E-2,9.872786522E0
1.048737417E1,-1.435693651E-1,2.392822690E-2,9.872786522E0
1.049705349E1,-1.435693651E-1,2.392822690E-2,9.882357597E0
1.050673271E1,-1.483550072E-1,1.435693540E-2,9.868000984E0
1.051641364E1,-1.435693651E-1,3.349951655E-2,9.877572060E0
1.052609245E1,-1.387837082E-1,2.392822690E-2,9.872786522E0
1.053577203E1,-1.435693651E-1,1.914258115E-2,9.891928673E0
1.054545104E1,-1.387837082E-1,1.914258115E-2,9.872786522E0
1.055513250E1,-1.627119333E-1,3.828516230E-2,9.877572060E0
1.056481255E1,-1.435693651E-1,2.392822690E-2,9.872786522E0
1.057449130E1,-1.435693651E-1,2.392822690E-2,9.868000984E0
1.058417141E1,-1.435693651E-1,3.349951655E-2,9.887143135E0
1.059385172E1,-1.339980662E-1,3.349951655E-2,9.882357597E0
1.060353120E1,-1.339980662E-1,1.914258115E-2,9.872786522E0
1.061321135E1,-1.483550072E-1,2.871387079E-2,9.882357597E0
1.062289120E1,-1.531406492E-1,3.349951655E-2,9.877572060E0
1.063257062E1,-1.387837082E-1,2.392822690E-2,9.868000984E0
1.064225026E1,-1.292124242E-1,1.914258115E-2,9.872786522E0
1.065192891E1,-1.339980662E-1,1.914258115E-2,9.868000984E0
1.066160609E1,-1.483550072E-1,1.435693540E-2,9.877572060E0
1.067128349E1,-1.531406492E-1,1.914258115E-2,9.868000984E0
1.068096187E1,-1.435693651E-1,2.392822690E-2,9.872786522E0
1.069064016E1,-1.483550072E-1,1.435693540E-2,9.887143135E0
1.070031885E1,-1.483550072E-1,1.914258115E-2,9.868000984E0
1.070999901E1,-1.435693651E-1,1.435693540E-2,9.868000984E0
1.071967906E1,-1.483550072E-1,1.914258115E-2,9.872786522E0
1.072935885E1,-1.387837082E-1,1.914258115E-2,9.863214493E0
1.073903838E1,-1.435693651E-1,1.914258115E-2,9.868000984E0
1.074871750E1,-1.531406492E-1,2.871387079E-2,9.872786522E0
1.075839823E1,-1.483550072E-1,2.871387079E-2,9.872786522E0
1.076807786E1,-1.387837082E-1,3.349951655E-2,9.877572060E0
1.077775641E1,-1.531406492E-1,2.392822690E-2,9.868000984E0
1.078743620E1,-1.339980662E-1,2.871387079E-2,9.891928673E0
1.079711682E1,-1.435693651E-1,3.828516230E-2,9.872786522E0
1.080679599E1,-1.387837082E-1,3.349951655E-2,9.877572060E0
1.081647583E1,-1.483550072E-1,9.571290575E-3,9.877572060E0
1.082615573E1,-1.339980662E-1,2.392822690E-2,9.877572060E0
1.083583510E1,-1.387837082E-1,1.435693540E-2,9.882357597E0
1.084551375E1,-1.339980662E-1,3.349951655E-2,9.877572060E0
1.085519276E1,-1.387837082E-1,1.435693540E-2,9.868000984E0
1.086487276E1,-1.387837082E-1,3.828516230E-2,9.872786522E0
1.087455167E1,-1.387837082E-1,2.392822690E-2,9.877572060E0
1.088423115E1,-1.339980662E-1,3.349951655E-2,9.872786522E0
1.089391099E1,-1.483550072E-1,2.871387079E-2,9.877572060E0
1.090359276E1,-1.435693651E-1,2.871387079E-2,9.877572060E0
1.091327396E1,-1.579262912E-1,1.914258115E-2,9.877572060E0
1.092295370E1,-1.531406492E-1,9.571290575E-3,9.877572060E0
1.093263469E1,-1.435693651E-1,2.392822690E-2,9.872786522E0
1.094231510E1,-1.435693651E-1,2.871387079E-2,9.877572060E0
1.095199614E1,-1.292124242E-1,2.871387079E-2,9.887143135E0
1.096167552E1,-1.435693651E-1,1.914258115E-2,9.882357597E0
1.097135630E1,-1.339980662E-1,3.828516230E-2,9.872786522E0
1.098103651E1,-1.435693651E-1,2.392822690E-2,9.882357597E0
1.099071609E1,-1.483550072E-1,2.871387079E-2,9.882357597E0
1.100039589E1,-1.387837082E-1,1.435693540E-2,9.882357597E0
1.101007594E1,-1.579262912E-1,3.828516230E-2,9.877572060E0
1.101975667E1,-1.483550072E-1,3.349951655E-2,9.872786522E0
1.102943672E1,-1.483550072E-1,1.435693540E-2,9.868000984E0
1.103911734E1,-1.483550072E-1,1.435693540E-2,9.882357597E0
1.104879771E1,-1.435693651E-1,2.392822690E-2,9.877572060E0
1.105847823E1,-1.435693651E-1,1.914258115E-2,9.887143135E0
1.106815838E1,-1.435693651E-1,1.435693540E-2,9.877572060E0
1.107783766E1,-1.531406492E-1,1.435693540E-2,9.877572060E0
1.108751896E1,-1.339980662E-1,2.392822690E-2,9.872786522E0
1.109719943E1,-1.244267747E-1,2.392822690E-2,9.877572060E0
1.110687958E1,-1.531406492E-1,1.914258115E-2,9.877572060E0
1.111656021E1,-1.579262912E-1,1.914258115E-2,9.887143135E0
1.112623964E1,-1.387837082E-1,2.871387079E-2,9.877572060E0
1.113592021E1,-1.483550072E-1,1.435693540E-2,9.887143135E0
1.114560062E1,-1.435693651E-1,2.392822690E-2,9.877572060E0
1.115528182E1,-1.435693651E-1,3.828516230E-2,9.877572060E0
1.116496276E1,-1.579262912E-1,2.392822690E-2,9.882357597E0
1.117464370E1,-1.244267747E-1,1.435693540E-2,9.877572060E0
1.118432359E1,-1.387837082E-1,1.435693540E-2,9.887143135E0
1.119400312E1,-1.387837082E-1,2.871387079E-2,9.896714211E0
1.120368391E1,-1.579262912E-1,1.914258115E-2,9.882357597E0
1.121336339E1,-1.292124242E-1,2.871387079E-2,9.872786522E0
1.122304354E1,-1.483550072E-1,2.392822690E-2,9.868000984E0
1.123272234E1,-1.435693651E-1,1.914258115E-2,9.887143135E0
1.124240146E1,-1.531406492E-1,9.571290575E-3,9.887143135E0
1.125208172E1,-1.483550072E-1,2.871387079E-2,9.887143135E0
1.126176010E1,-1.579262912E-1,2.392822690E-2,9.877572060E0
1.127143943E1,-1.435693651E-1,3.828516230E-2,9.882357597E0
1.128111880E1,-1.435693651E-1,4.307080805E-2,9.872786522E0
1.129079974E1,-1.435693651E-1,2.392822690E-2,9.882357597E0
1.130047818E1,-1.435693651E-1,9.571290575E-3,9.877572060E0
1.131015911E1,-1.339980662E-1,2.871387079E-2,9.872786522E0
1.131983927E1,-1.387837082E-1,3.349951655E-2,9.877572060E0
1.132952094E1,-1.531406492E-1,9.571290575E-3,9.872786522E0
1.133920109E1,-1.339980662E-1,2.392822690E-2,9.872786522E0
1.134888167E1,-1.435693651E-1,1.914258115E-2,9.877572060E0
1.135856109E1,-1.627119333E-1,2.871387079E-2,9.887143135E0
1.136824068E1,-1.387837082E-1,2.392822690E-2,9.868000984E0
1.137791917E1,-1.531406492E-1,2.871387079E-2,9.872786522E0
1.138759807E1,-1.435693651E-1,2.392822690E-2,9.891928673E0
1.139727844E1,-1.531406492E-1,3.349951655E-2,9.872786522E0
1.140695740E1,-1.435693651E-1,3.349951655E-2,9.877572060E0
1.141663693E1,-1.387837082E-1,4.785645287E-3,9.877572060E0
1.142631552E1,-1.435693651E-1,9.571290575E-3,9.891928673E0
1.143599375E1,-1.435693651E-1,2.392822690E-2,9.882357597E0
1.144567219E1,-1.387837082E-1,1.914258115E-2,9.872786522E0
1.145535141E1,-1.387837082E-1,4.785645287E-3,9.877572060E0
1.146503042E1,-1.339980662E-1,1.914258115E-2,9.887143135E0
1.147471104E1,-1.292124242E-1,1.914258115E-2,9.887143135E0
1.148439099E1,-1.531406492E-1,1.914258115E-2,9.877572060E0
1.149407036E1,-1.292124242E-1,1.435693540E-2,9.877572060E0
1.150374958E1,-1.435693651E-1,2.871387079E-2,9.877572060E0
1.151342927E1,-1.531406492E-1,2.392822690E-2,9.882357597E0
1.152311109E1,-1.387837082E-1,2.392822690E-2,9.887143135E0
1.153279172E1,-1.339980662E-1,3.828516230E-2,9.877572060E0
1.154247151E1,-1.435693651E-1,3.828516230E-2,9.882357597E0
1.155215130E1,-1.531406492E-1,2.871387079E-2,9.877572060E0
1.156183172E1,-1.579262912E-1,2.871387079E-2,9.887143135E0
1.157151068E1,-1.387837082E-1,1.435693540E-2,9.882357597E0
1.158118922E1,-1.435693651E-1,9.571290575E-3,9.891928673E0
1.159086990E1,-1.483550072E-1,1.914258115E-2,9.872786522E0
1.160054964E1,-1.435693651E-1,3.828516230E-2,9.872786522E0
1.161023010E1,-1.387837082E-1,1.914258115E-2,9.882357597E0
1.161990901E1,-1.579262912E-1,1.435693540E-2,9.877572060E0
1.162958969E1,-1.292124242E-1,2.392822690E-2,9.877572060E0
1.163927135E1,-1.435693651E-1,2.392822690E-2,9.872786522E0
1.164895151E1,-1.435693651E-1,2.392822690E-2,9.887143135E0
1.165863208E1,-1.435693651E-1,2.871387079E-2,9.872786522E0
1.166831255E1,-1.531406492E-1,1.914258115E-2,9.887143135E0
1.167799302E1,-1.435693651E-1,2.871387079E-2,9.882357597E0
1.168767297E1,-1.483550072E-1,2.871387079E-2,9.887143135E0
1.169735214E1,-1.339980662E-1,4.785645287E-3,9.872786522E0
1.170703094E1,-1.292124242E-1,2.392822690E-2,9.891928673E0
1.171671109E1,-1.387837082E-1,2.871387079E-2,9.872786522E0
1.172639036E1,-1.435693651E-1,1.914258115E-2,9.887143135E0
1.173606995E1,-1.531406492E-1,2.871387079E-2,9.887143135E0
1.174575120E1,-1.339980662E-1,1.914258115E-2,9.887143135E0
1.175543167E1,-1.483550072E-1,2.871387079E-2,9.882357597E0
1.176511078E1,-1.483550072E-1,4.307080805E-2,9.891928673E0
1.177479094E1,-1.435693651E-1,1.914258115E-2,9.877572060E0
1.178447234E1,-1.435693651E-1,4.785645287E-3,9.868000984E0
1.179415271E1,-1.483550072E-1,2.871387079E-2,9.872786522E0
1.180383266E1,-1.531406492E-1,2.392822690E-2,9.882357597E0
1.181351130E1,-1.483550072E-1,3.349951655E-2,9.872786522E0
1.182319026E1,-1.339980662E-1,1.914258115E-2,9.887143135E0
1.183286932E1,-1.435693651E-1,3.349951655E-2,9.863214493E0
1.184254823E1,-1.483550072E-1,1.914258115E-2,9.887143135E0
1.185222667E1,-1.387837082E-1,2.871387079E-2,9.891928673E0
1.186190422E1,-1.387837082E-1,2.871387079E-2,9.872786522E0
1.187158422E1,-1.531406492E-1,1.914258115E-2,9.887143135E0
1.188126505E1,-1.435693651E-1,9.571290575E-3,9.877572060E0
1.189094432E1,-1.531406492E-1,2.392822690E-2,9.877572060E0
1.190062234E1,-1.579262912E-1,1.435693540E-2,9.877572060E0
1.191030109E1,-1.387837082E-1,2.871387079E-2,9.872786522E0
1.191997838E1,-1.435693651E-1,1.435693540E-2,9.872786522E0
1.192965703E1,-1.292124242E-1,3.349951655E-2,9.872786522E0
1.193933693E1,-1.387837082E-1,2.392822690E-2,9.877572060E0
1.194901589E1,-1.435693651E-1,9.571290575E-3,9.872786522E0
1.195869547E1,-1.435693651E-1,3.828516230E-2,9.877572060E0
1.196837255E1,-1.387837082E-1,3.828516230E-2,9.877572060E0
1.197805073E1,-1.387837082E-1,2.871387079E-2,9.887143135E0
1.198772927E1,-1.435693651E-1,1.914258115E-2,9.882357597E0
1.199740958E1,-1.531406492E-1,2.871387079E-2,9.872786522E0
1.200708812E1,-1.387837082E-1,1.914258115E-2,9.872786522E0
1.201676719E1,-1.483550072E-1,1.435693540E-2,9.882357597E0
1.202644536E1,-1.339980662E-1,4.785645287E-3,9.882357597E0
1.203612490E1,-1.483550072E-1,2.392822690E-2,9.877572060E0
1.204580240E1,-1.387837082E-1,2.392822690E-2,9.891928673E0
1.205548260E1,-1.387837082E-1,1.914258115E-2,9.877572060E0
1.206516219E1,-1.387837082E-1,1.914258115E-2,9.872786522E0
1.207484182E1,-1.483550072E-1,2.871387079E-2,9.887143135E0
1.208452042E1,-1.483550072E-1,1.914258115E-2,9.872786522E0
1.209420052E1,-1.292124242E-1,1.914258115E-2,9.887143135E0
1.210387927E1,-1.339980662E-1,2.871387079E-2,9.891928673E0
1.211355922E1,-1.483550072E-1,2.392822690E-2,9.887143135E0
1.212324005E1,-1.483550072E-1,3.349951655E-2,9.891928673E0
1.213292094E1,-1.531406492E-1,1.914258115E-2,9.872786522E0
1.214260141E1,-1.483550072E-1,2.392822690E-2,9.887143135E0
1.215228161E1,-1.483550072E-1,9.571290575E-3,9.882357597E0
1.216195969E1,-1.435693651E-1,1.435693540E-2,9.882357597E0
1.217163839E1,-1.435693651E-1,1.914258115E-2,9.882357597E0
1.218131807E1,-1.483550072E-1,4.785645287E-3,9.887143135E0
1.219099911E1,-1.483550072E-1,2.871387079E-2,9.891928673E0
1.220067943E1,-1.531406492E-1,2.392822690E-2,9.872786522E0
1.221036099E1,-1.531406492E-1,2.392822690E-2,9.887143135E0
1.222004151E1,-1.483550072E-1,1.435693540E-2,9.882357597E0
1.222972141E1,-1.531406492E-1,1.914258115E-2,9.877572060E0
1.223940208E1,-1.292124242E-1,3.349951655E-2,9.887143135E0
1.224908042E1,-1.387837082E-1,2.871387079E-2,9.877572060E0
1.225875969E1,-1.339980662E-1,1.914258115E-2,9.882357597E0
1.226843849E1,-1.387837082E-1,9.571290575E-3,9.877572060E0
1.227811875E1,-1.483550072E-1,2.392822690E-2,9.877572060E0
1.228779838E1,-1.531406492E-1,1.435693540E-2,9.882357597E0
1.229747818E1,-1.387837082E-1,2.392822690E-2,9.872786522E0
1.230715714E1,-1.339980662E-1,2.871387079E-2,9.882357597E0
1.231683792E1,-1.483550072E-1,-4.785645287E-3,9.887143135E0
1.232651760E1,-1.387837082E-1,2.392822690E-2,9.882357597E0
1.233619786E1,-1.579262912E-1,1.914258115E-2,9.872786522E0
1.234587781E1,-1.339980662E-1,2.871387079E-2,9.877572060E0
1.235555776E1,-1.339980662E-1,1.435693540E-2,9.872786522E0
1.236523729E1,-1.387837082E-1,1.914258115E-2,9.872786522E0
1.237491641E1,-1.435693651E-1,2.871387079E-2,9.882357597E0
1.238459547E1,-1.435693651E-1,1.914258115E-2,9.877572060E0
1.239427437E1,-1.579262912E-1,1.914258115E-2,9.872786522E0
1.240395354E1,-1.483550072E-1,2.392822690E-2,9.868000984E0
1.241363229E1,-1.387837082E-1,9.571290575E-3,9.868000984E0
1.242331276E1,-1.387837082E-1,2.392822690E-2,9.887143135E0
1.243299286E1,-1.483550072E-1,3.828516230E-2,9.872786522E0
1.244267292E1,-1.292124242E-1,1.435693540E-2,9.882357597E0
1.245235328E1,-1.435693651E-1,3.828516230E-2,9.877572060E0
1.246203260E1,-1.387837082E-1,3.828516230E-2,9.868000984E0
1.247171318E1,-1.244267747E-1,2.392822690E-2,9.868000984E0
1.248139427E1,-1.387837082E-1,3.349951655E-2,9.891928673E0
1.249107385E1,-1.387837082E-1,2.392822690E-2,9.901499748E0
1.250075286E1,-1.387837082E-1,2.392822690E-2,9.872786522E0
1.251043354E1,-1.339980662E-1,9.571290575E-3,9.882357597E0
1.252011401E1,-1.435693651E-1,1.914258115E-2,9.887143135E0
1.252979292E1,-1.339980662E-1,1.914258115E-2,9.877572060E0
1.253947172E1,-1.531406492E-1,2.392822690E-2,9.872786522E0
1.254915094E1,-1.339980662E-1,1.914258115E-2,9.877572060E0
1.255883036E1,-1.435693651E-1,2.392822690E-2,9.872786522E0
1.256851000E1,-1.292124242E-1,2.871387079E-2,9.882357597E0
1.257819047E1,-1.435693651E-1,2.871387079E-2,9.877572060E0
1.258787135E1,-1.435693651E-1,2.871387079E-2,9.882357597E0
1.259755125E1,-1.531406492E-1,2.871387079E-2,9.882357597E0
1.260723120E1,-1.531406492E-1,1.914258115E-2,9.891928673E0
1.261691255E1,-1.579262912E-1,4.785645381E-2,9.872786522E0
1.262659234E1,-1.435693651E-1,9.571290575E-3,9.882357597E0
1.263627271E1,-1.435693651E-1,1.914258115E-2,9.877572060E0
1.264595349E1,-1.292124242E-1,2.871387079E-2,9.887143135E0
1.265563406E1,-1.531406492E-1,2.871387079E-2,9.872786522E0
1.266531375E1,-1.339980662E-1,3.349951655E-2,9.882357597E0
1.267499417E1,-1.435693651E-1,2.871387079E-2,9.887143135E0
1.268467437E1,-1.435693651E-1,1.435693540E-2,9.891928673E0
1.269435531E1,-1.387837082E-1,9.571290575E-3,9.887143135E0
1.270403422E1,-1.435693651E-1,2.392822690E-2,9.877572060E0
1.271371307E1,-1.339980662E-1,2.392822690E-2,9.896714211E0
1.272339229E1,-1.483550072E-1,2.871387079E-2,9.868000984E0
1.273307146E1,-1.435693651E-1,1.914258115E-2,9.882357597E0
1.274275094E1,-1.435693651E-1,2.392822690E-2,9.877572060E0
1.275243193E1,-1.483550072E-1,2.392822690E-2,9.877572060E0
1.276211182E1,-1.387837082E-1,2.871387079E-2,9.877572060E0
1.277179250E1,-1.435693651E-1,2.871387079E-2,9.882357597E0
1.278147312E1,-1.579262912E-1,3.828516230E-2,9.882357597E0
1.279115167E1,-1.435693651E-1,3.828516230E-2,9.887143135E0
1.280083276E1,-1.339980662E-1,9.571290575E-3,9.891928673E0
1.281051172E1,-1.435693651E-1,2.392822690E-2,9.877572060E0
1.282019125E1,-1.387837082E-1,1.435693540E-2,9.882357597E0
1.282987094E1,-1.387837082E-1,1.914258115E-2,9.868000984E0
1.283955083E1,-1.483550072E-1,1.914258115E-2,9.868000984E0
1.284922922E1,-1.531406492E-1,1.914258115E-2,9.863214493E0
1.285890833E1,-1.435693651E-1,9.571290575E-3,9.877572060E0
1.286858896E1,-1.483550072E-1,3.349951655E-2,9.882357597E0
1.287826859E1,-1.387837082E-1,2.392822690E-2,9.868000984E0
1.288794937E1,-1.387837082E-1,1.435693540E-2,9.872786522E0
1.289762990E1,-1.387837082E-1,1.914258115E-2,9.896714211E0
1.290731026E1,-1.483550072E-1,1.914258115E-2,9.891928673E0
1.291699078E1,-1.483550072E-1,1.914258115E-2,9.887143135E0
1.292667219E1,-1.292124242E-1,2.392822690E-2,9.877572060E0
1.293635187E1,-1.435693651E-1,1.914258115E-2,9.887143135E0
1.294603156E1,-1.292124242E-1,9.571290575E-3,9.872786522E0
1.295571109E1,-1.483550072E-1,0.000000000E0,9.872786522E0
1.296539115E1,-1.339980662E-1,9.571290575E-3,9.882357597E0
1.297507172E1,-1.387837082E-1,1.435693540E-2,9.891928673E0
1.298475198E1,-1.435693651E-1,2.871387079E-2,9.882357597E0
1.299443286E1,-1.483550072E-1,2.392822690E-2,9.877572060E0
1.300411318E1,-1.387837082E-1,2.871387079E-2,9.877572060E0
1.301379453E1,-1.531406492E-1,2.392822690E-2,9.887143135E0
1.302347516E1,-1.627119333E-1,3.349951655E-2,9.868000984E0
1.303315578E1,-1.387837082E-1,1.914258115E-2,9.882357597E0
1.304283766E1,-1.483550072E-1,9.571290575E-3,9.882357597E0
1.305251797E1,-1.483550072E-1,3.349951655E-2,9.872786522E0
1.306219927E1,-1.483550072E-1,2.871387079E-2,9.877572060E0
1.307187937E1,-1.483550072E-1,1.435693540E-2,9.877572060E0
1.308155901E1,-1.483550072E-1,3.828516230E-2,9.882357597E0
1.309123812E1,-1.483550072E-1,2.392822690E-2,9.872786522E0
1.310091776E1,-1.292124242E-1,2.871387079E-2,9.882357597E0
1.311059792E1,-1.435693651E-1,2.871387079E-2,9.882357597E0
1.312027651E1,-1.339980662E-1,1.914258115E-2,9.887143135E0
1.312995599E1,-1.339980662E-1,4.785645381E-2,9.882357597E0
1.313963464E1,-1.387837082E-1,2.871387079E-2,9.877572060E0
1.314931510E1,-1.339980662E-1,1.435693540E-2,9.872786522E0
1.315899505E1,-1.148554832E-1,3.349951655E-2,9.877572060E0
1.316867703E1,-1.435693651E-1,2.392822690E-2,9.877572060E0
1.317835547E1,-1.339980662E-1,3.349951655E-2,9.887143135E0
1.318803536E1,-1.531406492E-1,2.392822690E-2,9.863214493E0
1.319771443E1,-1.531406492E-1,1.914258115E-2,9.877572060E0
1.320739500E1,-1.579262912E-1,2.392822690E-2,9.882357597E0
1.321707609E1,-1.627119333E-1,2.871387079E-2,9.882357597E0
1.322675755E1,-1.483550072E-1,1.435693540E-2,9.882357597E0
1.323643828E1,-1.244267747E-1,9.571290575E-3,9.882357597E0
1.324611760E1,-1.435693651E-1,2.392822690E-2,9.877572060E0
1.325579656E1,-1.339980662E-1,9.571290575E-3,9.877572060E0
1.326547422E1,-1.387837082E-1,4.307080805E-2,9.872786522E0
1.327515391E1,-1.387837082E-1,1.435693540E-2,9.872786522E0
1.328483469E1,-1.579262912E-1,2.392822690E-2,9.882357597E0
1.329451422E1,-1.435693651E-1,2.392822690E-2,9.872786522E0
1.330419344E1,-1.435693651E-1,0.000000000E0,9.868000984E0
1.331387099E1,-1.435693651E-1,2.871387079E-2,9.868000984E0
1.332355031E1,-1.483550072E-1,2.871387079E-2,9.877572060E0
1.333322917E1,-1.435693651E-1,1.914258115E-2,9.868000984E0
1.334290792E1,-1.387837082E-1,2.392822690E-2,9.877572060E0
1.335258766E1,-1.339980662E-1,1.435693540E-2,9.887143135E0
1.336226812E1,-1.292124242E-1,2.871387079E-2,9.887143135E0
1.337194661E1,-1.435693651E-1,1.914258115E-2,9.877572060E0
1.338162620E1,-1.339980662E-1,2.871387079E-2,9.877572060E0
1.339130609E1,-1.435693651E-1,9.571290575E-3,9.872786522E0
1.340098547E1,-1.435693651E-1,2.871387079E-2,9.877572060E0
1.341066521E1,-1.435693651E-1,2.392822690E-2,9.887143135E0
1.342034458E1,-1.483550072E-1,1.435693540E-2,9.877572060E0
1.343002484E1,-1.435693651E-1,2.392822690E-2,9.882357597E0
1.343970474E1,-1.579262912E-1,3.349951655E-2,9.887143135E0
1.344938505E1,-1.339980662E-1,1.914258115E-2,9.882357597E0
1.345906552E1,-1.483550072E-1,1.914258115E-2,9.882357597E0
1.346874495E1,-1.387837082E-1,3.349951655E-2,9.882357597E0
1.347842474E1,-1.435693651E-1,1.914258115E-2,9.877572060E0
1.348810495E1,-1.339980662E-1,2.392822690E-2,9.868000984E0
1.349778594E1,-1.387837082E-1,1.435693540E-2,9.882357597E0
1.350746578E1,-1.339980662E-1,2.871387079E-2,9.872786522E0
1.351714505E1,-1.387837082E-1,2.392822690E-2,9.882357597E0
1.352682635E1,-1.339980662E-1,2.392822690E-2,9.882357597E0
1.353650635E1,-1.435693651E-1,1.435693540E-2,9.877572060E0
1.354618620E1,-1.387837082E-1,3.349951655E-2,9.872786522E0
1.355586589E1,-1.387837082E-1,4.785645287E-3,9.877572060E0
1.356554531E1,-1.483550072E-1,1.914258115E-2,9.877572060E0
1.357522448E1,-1.483550072E-1,1.435693540E-2,9.877572060E0
1.358490312E1,-1.339980662E-1,2.392822690E-2,9.872786522E0
1.359458370E1,-1.387837082E-1,3.349951655E-2,9.868000984E0
1.360426339E1,-1.435693651E-1,9.571290575E-3,9.882357597E0
1.361394260E1,-1.435693651E-1,1.435693540E-2,9.877572060E0
1.362362401E1,-1.339980662E-1,2.871387079E-2,9.877572060E0
1.363330458E1,-1.435693651E-1,2.871387079E-2,9.877572060E0
1.364298536E1,-1.435693651E-1,3.349951655E-2,9.887143135E0
1.365266698E1,-1.531406492E-1,2.392822690E-2,9.891928673E0
1.366234651E1,-1.435693651E-1,1.435693540E-2,9.872786522E0
1.367202781E1,-1.292124242E-1,2.392822690E-2,9.877572060E0
1.368170734E1,-1.674975902E-1,2.871387079E-2,9.882357597E0
1.369138729E1,-1.387837082E-1,2.871387079E-2,9.877572060E0
1.370106880E1,-1.435693651E-1,2.871387079E-2,9.868000984E0
1.371074828E1,-1.435693651E-1,3.349951655E-2,9.887143135E0
1.372042797E1,-1.483550072E-1,1.435693540E-2,9.872786522E0
1.373010750E1,-1.435693651E-1,1.435693540E-2,9.887143135E0
1.373978797E1,-1.483550072E-1,9.571290575E-3,9.868000984E0
1.374946776E1,-1.387837082E-1,2.871387079E-2,9.877572060E0
1.375914839E1,-1.435693651E-1,2.871387079E-2,9.891928673E0
1.376883010E1,-1.387837082E-1,2.392822690E-2,9.891928673E0
1.377851016E1,-1.387837082E-1,2.392822690E-2,9.877572060E0
1.378819057E1,-1.435693651E-1,3.349951655E-2,9.872786522E0
1.379787062E1,-1.387837082E-1,2.392822690E-2,9.882357597E0
1.380755047E1,-1.387837082E-1,3.349951655E-2,9.872786522E0
1.381723073E1,-1.435693651E-1,2.392822690E-2,9.868000984E0
1.382691182E1,-1.387837082E-1,2.392822690E-2,9.877572060E0
1.383659364E1,-1.387837082E-1,2.392822690E-2,9.863214493E0
1.384627437E1,-1.435693651E-1,2.392822690E-2,9.872786522E0
1.385595562E1,-1.435693651E-1,2.871387079E-2,9.887143135E0
1.386563568E1,-1.435693651E-1,1.435693540E-2,9.896714211E0
1.387531448E1,-1.435693651E-1,-4.785645287E-3,9.887143135E0
1.388499474E1,-1.339980662E-1,2.392822690E-2,9.868000984E0
1.389467437E1,-1.579262912E-1,1.914258115E-2,9.877572060E0
1.390435307E1,-1.579262912E-1,9.571290575E-3,9.872786522E0
1.391403167E1,-1.531406492E-1,2.871387079E-2,9.877572060E0
1.392371208E1,-1.579262912E-1,2.871387079E-2,9.863214493E0
1.393339167E1,-1.387837082E-1,2.871387079E-2,9.882357597E0
1.394307161E1,-1.435693651E-1,2.392822690E-2,9.882357597E0
1.395275052E1,-1.387837082E-1,2.871387079E-2,9.872786522E0
1.396243005E1,-1.483550072E-1,2.392822690E-2,9.882357597E0
1.397211099E1,-1.531406492E-1,1.435693540E-2,9.887143135E0
1.398179047E1,-1.435693651E-1,1.914258115E-2,9.872786522E0
1.399147099E1,-1.339980662E-1,2.871387079E-2,9.877572060E0
1.400114979E1,-1.292124242E-1,2.392822690E-2,9.877572060E0
1.401083115E1,-1.387837082E-1,2.871387079E-2,9.868000984E0
1.402051094E1,-1.531406492E-1,1.435693540E-2,9.887143135E0
1.403019182E1,-1.435693651E-1,1.914258115E-2,9.868000984E0
1.403987120E1,-1.387837082E-1,1.914258115E-2,9.877572060E0
1.404955182E1,-1.531406492E-1,3.349951655E-2,9.877572060E0
1.405923042E1,-1.531406492E-1,1.914258115E-2,9.887143135E0
1.406890864E1,-1.483550072E-1,2.871387079E-2,9.877572060E0
1.407858974E1,-1.483550072E-1,2.871387079E-2,9.891928673E0
1.408826974E1,-1.339980662E-1,2.392822690E-2,9.882357597E0
1.409794838E1,-1.483550072E-1,2.392822690E-2,9.887143135E0
1.410763031E1,-1.483550072E-1,2.392822690E-2,9.872786522E0
1.411731036E1,-1.435693651E-1,4.785645287E-3,9.868000984E0
1.412699052E1,-1.292124242E-1,4.785645287E-3,9.882357597E0
1.413667151E1,-1.483550072E-1,3.828516230E-2,9.872786522E0
1.414635109E1,-1.435693651E-1,2.392822690E-2,9.882357597E0
1.415603125E1,-1.387837082E-1,2.392822690E-2,9.868000984E0
1.416571250E1,-1.292124242E-1,2.392822690E-2,9.872786522E0
1.417539312E1,-1.387837082E-1,0.000000000E0,9.877572060E0
1.418507396E1,-1.244267747E-1,1.435693540E-2,9.887143135E0
1.419475370E1,-1.531406492E-1,2.871387079E-2,9.868000984E0
1.420443500E1,-1.579262912E-1,2.392822690E-2,9.877572060E0
1.421411630E1,-1.483550072E-1,1.435693540E-2,9.868000984E0
1.422379620E1,-1.387837082E-1,2.392822690E-2,9.877572060E0
1.423347755E1,-1.387837082E-1,3.349951655E-2,9.882357597E0
1.424315708E1,-1.435693651E-1,3.349951655E-2,9.872786522E0
1.425283766E1,-1.531406492E-1,2.392822690E-2,9.877572060E0
1.426251807E1,-1.196411327E-1,4.785645287E-3,9.872786522E0
1.427219891E1,-1.483550072E-1,2.871387079E-2,9.877572060E0
1.428187760E1,-1.531406492E-1,2.392822690E-2,9.858428955E0
1.429155901E1,-1.579262912E-1,1.914258115E-2,9.872786522E0
1.430124031E1,-1.483550072E-1,2.871387079E-2,9.863214493E0
1.431092010E1,-1.387837082E-1,2.392822690E-2,9.882357597E0
1.432059891E1,-1.387837082E-1,1.914258115E-2,9.872786522E0
1.433028062E1,-1.435693651E-1,1.914258115E-2,9.882357597E0
1.433996083E1,-1.435693651E-1,2.392822690E-2,9.872786522E0
1.434964052E1,-1.483550072E-1,1.914258115E-2,9.872786522E0
1.435932088E1,-1.339980662E-1,1.435693540E-2,9.877572060E0
1.436900135E1,-1.387837082E-1,2.392822690E-2,9.887143135E0
1.437868135E1,-1.387837082E-1,3.349951655E-2,9.863214493E0
1.438836234E1,-1.435693651E-1,1.914258115E-2,9.877572060E0
1.439804255E1,-1.435693651E-1,1.914258115E-2,9.887143135E0
1.440772380E1,-1.531406492E-1,2.871387079E-2,9.877572060E0
1.441740411E1,-1.435693651E-1,2.392822690E-2,9.872786522E0
1.442708505E1,-1.483550072E-1,2.392822690E-2,9.872786522E0
1.443676604E1,-1.483550072E-1,4.785645287E-3,9.872786522E0
1.444644677E1,-1.531406492E-1,1.914258115E-2,9.872786522E0
1.445612740E1,-1.435693651E-1,1.914258115E-2,9.877572060E0
1.446580828E1,-1.387837082E-1,2.392822690E-2,9.882357597E0
1.447548927E1,-1.387837082E-1,2.392822690E-2,9.887143135E0
1.448517036E1,-1.387837082E-1,1.914258115E-2,9.882357597E0
1.449485052E1,-1.579262912E-1,2.392822690E-2,9.877572060E0
1.450453104E1,-1.483550072E-1,1.914258115E-2,9.877572060E0
1.451421307E1,-1.435693651E-1,2.871387079E-2,9.882357597E0
1.452389396E1,-1.435693651E-1,1.914258115E-2,9.872786522E0
1.453357594E1,-1.292124242E-1,2.871387079E-2,9.877572060E0
1.454325667E1,-1.387837082E-1,4.785645381E-2,9.872786522E0
1.455293687E1,-1.483550072E-1,3.828516230E-2,9.872786522E0
1.456261745E1,-1.531406492E-1,9.571290575E-3,9.877572060E0
1.457229755E1,-1.531406492E-1,2.392822690E-2,9.868000984E0
1.458197708E1,-1.531406492E-1,1.435693540E-2,9.882357597E0
1.459165672E1,-1.531406492E-1,4.785645287E-3,9.891928673E0
1.460133609E1,-1.435693651E-1,2.871387079E-2,9.887143135E0
1.461101766E1,-1.387837082E-1,1.914258115E-2,9.877572060E0
1.462069880E1,-1.387837082E-1,1.435693540E-2,9.891928673E0
1.463037891E1,-1.435693651E-1,2.871387079E-2,9.877572060E0
1.464005964E1,-1.292124242E-1,2.392822690E-2,9.868000984E0
1.464974021E1,-1.531406492E-1,1.435693540E-2,9.872786522E0
1.465942161E1,-1.483550072E-1,1.914258115E-2,9.882357597E0
1.466910198E1,-1.483550072E-1,1.435693540E-2,9.882357597E0
1.467878240E1,-1.339980662E-1,9.571290575E-3,9.877572060E0
1.468846245E1,-1.483550072E-1,1.914258115E-2,9.868000984E0
1.469814359E1,-1.579262912E-1,1.914258115E-2,9.882357597E0
1.470782359E1,-1.435693651E-1,1.435693540E-2,9.877572060E0
1.471750401E1,-1.435693651E-1,2.871387079E-2,9.872786522E0
1.472718307E1,-1.387837082E-1,2.392822690E-2,9.868000984E0
1.473686328E1,-1.531406492E-1,2.392822690E-2,9.868000984E0
1.474654307E1,-1.435693651E-1,2.392822690E-2,9.872786522E0
1.475622203E1,-1.435693651E-1,1.435693540E-2,9.877572060E0
1.476590219E1,-1.531406492E-1,2.871387079E-2,9.877572060E0
1.477558271E1,-1.435693651E-1,3.828516230E-2,9.877572060E0
1.478526250E1,-1.339980662E-1,2.871387079E-2,9.872786522E0
1.479494234E1,-1.483550072E-1,2.392822690E-2,9.872786522E0
1.480462344E1,-1.579262912E-1,1.435693540E-2,9.882357597E0
1.481430364E1,-1.339980662E-1,2.871387079E-2,9.877572060E0
1.482398458E1,-1.148554832E-1,4.785645287E-3,9.882357597E0
1.483366583E1,-1.435693651E-1,2.871387079E-2,9.872786522E0
1.484334880E1,-1.292124242E-1,3.828516230E-2,9.882357597E0
1.485302969E1,-1.435693651E-1,9.571290575E-3,9.882357597E0
1.486271005E1,-1.435693651E-1,3.349951655E-2,9.872786522E0
1.487239047E1,-1.531406492E-1,2.392822690E-2,9.882357597E0
1.488207229E1,-1.531406492E-1,2.871387079E-2,9.877572060E0
1.489175260E1,-1.483550072E-1,2.871387079E-2,9.877572060E0
1.490143240E1,-1.531406492E-1,3.349951655E-2,9.877572060E0
1.491111250E1,-1.435693651E-1,3.349951655E-2,9.872786522E0
1.492079380E1,-1.244267747E-1,1.435693540E-2,9.872786522E0
1.493047391E1,-1.435693651E-1,2.392822690E-2,9.877572060E0
1.494015411E1,-1.483550072E-1,2.392822690E-2,9.872786522E0
1.494983464E1,-1.483550072E-1,9.571290575E-3,9.877572060E0
1.495951630E1,-1.579262912E-1,1.914258115E-2,9.858428955E0
1.496919620E1,-1.387837082E-1,1.435693540E-2,9.872786522E0
1.497887641E1,-1.435693651E-1,3.828516230E-2,9.877572060E0
1.498855604E1,-1.387837082E-1,1.435693540E-2,9.877572060E0
1.499823682E1,-1.387837082E-1,4.785645287E-3,9.877572060E0
1.500791719E1,-1.483550072E-1,2.392822690E-2,9.863214493E0
1.501759760E1,-1.339980662E-1,1.914258115E-2,9.868000984E0
1.502727635E1,-1.339980662E-1,3.828516230E-2,9.868000984E0
1.503695687E1,-1.483550072E-1,1.914258115E-2,9.882357597E0
1.504663750E1,-1.387837082E-1,2.871387079E-2,9.891928673E0
1.505631745E1,-1.435693651E-1,3.349951655E-2,9.882357597E0
1.506599859E1,-1.435693651E-1,3.349951655E-2,9.863214493E0
1.507567901E1,-1.579262912E-1,2.392822690E-2,9.872786522E0
1.508535943E1,-1.339980662E-1,3.349951655E-2,9.872786522E0
1.509504099E1,-1.435693651E-1,2.392822690E-2,9.877572060E0
1.510472359E1,-1.387837082E-1,1.435693540E-2,9.877572060E0
1.511440469E1,-1.387837082E-1,2.392822690E-2,9.877572060E0
1.512408568E1,-1.531406492E-1,2.392822690E-2,9.877572060E0
1.513376750E1,-1.483550072E-1,3.828516230E-2,9.882357597E0
1.514344807E1,-1.292124242E-1,2.871387079E-2,9.882357597E0
1.515312901E1,-1.483550072E-1,3.349951655E-2,9.887143135E0
1.516280969E1,-1.387837082E-1,3.349951655E-2,9.872786522E0
1.517249057E1,-1.244267747E-1,1.914258115E-2,9.877572060E0
1.518217234E1,-1.531406492E-1,2.871387079E-2,9.877572060E0
1.519185328E1,-1.483550072E-1,1.435693540E-2,9.877572060E0
1.520153521E1,-1.435693651E-1,2.392822690E-2,9.868000984E0
1.521121594E1,-1.387837082E-1,1.435693540E-2,9.877572060E0
1.522089635E1,-1.387837082E-1,2.392822690E-2,9.877572060E0
1.523057651E1,-1.435693651E-1,1.914258115E-2,9.882357597E0
1.524025776E1,-1.579262912E-1,3.349951655E-2,9.872786522E0
1.524993969E1,-1.483550072E-1,2.871387079E-2,9.877572060E0
1.525962135E1,-1.339980662E-1,1.914258115E-2,9.872786522E0
1.526930312E1,-1.435693651E-1,1.435693540E-2,9.877572060E0
1.527898391E1,-1.531406492E-1,1.914258115E-2,9.887143135E0
1.528866505E1,-1.435693651E-1,1.914258115E-2,9.868000984E0
1.529834625E1,-1.435693651E-1,1.914258115E-2,9.872786522E0
1.530802630E1,-1.435693651E-1,1.914258115E-2,9.877572060E0
1.531770672E1,-1.531406492E-1,2.871387079E-2,9.877572060E0
1.532738854E1,-1.339980662E-1,1.914258115E-2,9.877572060E0
1.533706958E1,-1.531406492E-1,3.828516230E-2,9.872786522E0
1.534675042E1,-1.435693651E-1,3.349951655E-2,9.872786522E0
1.535643182E1,-1.339980662E-1,1.435693540E-2,9.877572060E0
1.536611302E1,-1.531406492E-1,9.571290575E-3,9.877572060E0
1.537579271E1,-1.387837082E-1,1.914258115E-2,9.877572060E0
1.538547443E1,-1.387837082E-1,2.871387079E-2,9.863214493E0
1.539515437E1,-1.387837082E-1,1.435693540E-2,9.877572060E0
1.540483411E1,-1.387837082E-1,1.435693540E-2,9.872786522E0
1.541451411E1,-1.435693651E-1,2.871387079E-2,9.863214493E0
1.542419552E1,-1.531406492E-1,2.392822690E-2,9.872786522E0
1.543387531E1,-1.531406492E-1,9.571290575E-3,9.868000984E0
1.544355750E1,-1.627119333E-1,2.871387079E-2,9.882357597E0
1.545323943E1,-1.483550072E-1,9.571290575E-3,9.872786522E0
1.546291948E1,-1.339980662E-1,1.435693540E-2,9.863214493E0
1.547260021E1,-1.387837082E-1,2.871387079E-2,9.877572060E0
1.548228161E1,-1.339980662E-1,9.571290575E-3,9.882357597E0
1.549196109E1,-1.483550072E-1,2.392822690E-2,9.882357597E0
1.550164083E1,-1.483550072E-1,1.914258115E-2,9.872786522E0
1.551132130E1,-1.483550072E-1,1.914258115E-2,9.882357597E0
1.552100333E1,-1.387837082E-1,1.914258115E-2,9.877572060E0
1.553068385E1,-1.531406492E-1,1.435693540E-2,9.882357597E0
1.554036339E1,-1.435693651E-1,3.349951655E-2,9.863214493E0
1.555004333E1,-1.387837082E-1,1.435693540E-2,9.877572060E0
1.555972448E1,-1.435693651E-1,1.914258115E-2,9.872786522E0
1.556940380E1,-1.435693651E-1,1.914258115E-2,9.863214493E0
1.557908396E1,-1.531406492E-1,1.914258115E-2,9.863214493E0
1.558876536E1,-1.483550072E-1,2.392822690E-2,9.882357597E0
1.559844687E1,-1.435693651E-1,1.435693540E-2,9.882357597E0
1.560812724E1,-1.387837082E-1,2.871387079E-2,9.882357597E0
1.561780823E1,-1.339980662E-1,1.435693540E-2,9.868000984E0
1.562748875E1,-1.292124242E-1,1.914258115E-2,9.872786522E0
1.563716833E1,-1.435693651E-1,9.571290575E-3,9.877572060E0
1.564684745E1,-1.292124242E-1,3.349951655E-2,9.887143135E0
1.565652839E1,-1.292124242E-1,1.914258115E-2,9.877572060E0
1.566621089E1,-1.292124242E-1,3.828516230E-2,9.877572060E0
1.567589198E1,-1.435693651E-1,1.914258115E-2,9.887143135E0
1.568557229E1,-1.339980662E-1,3.349951655E-2,9.887143135E0
1.569525286E1,-1.435693651E-1,2.871387079E-2,9.877572060E0
1.570493302E1,-1.387837082E-1,9.571290575E-3,9.882357597E0
1.571461484E1,-1.435693651E-1,1.914258115E-2,9.872786522E0
1.572429469E1,-1.483550072E-1,2.871387079E-2,9.868000984E0
1.573397505E1,-1.435693651E-1,1.435693540E-2,9.868000984E0
1.574365427E1,-1.483550072E-1,9.571290575E-3,9.872786522E0
1.575333391E1,-1.339980662E-1,2.871387079E-2,9.877572060E0
1.576301427E1,-1.483550072E-1,2.392822690E-2,9.872786522E0
1.577269484E1,-1.339980662E-1,1.435693540E-2,9.877572060E0
1.578237312E1,-1.339980662E-1,2.392822690E-2,9.882357597E0
1.579205458E1,-1.339980662E-1,1.435693540E-2,9.891928673E0
1.580173625E1,-1.531406492E-1,1.914258115E-2,9.872786522E0
1.581141536E1,-1.435693651E-1,2.871387079E-2,9.882357597E0
1.582109427E1,-1.339980662E-1,2.392822690E-2,9.877572060E0
1.583077505E1,-1.579262912E-1,3.349951655E-2,9.872786522E0
1.584045484E1,-1.531406492E-1,9.571290575E-3,9.877572060E0
1.585013614E1,-1.483550072E-1,9.571290575E-3,9.882357597E0
1.585981604E1,-1.483550072E-1,2.871387079E-2,9.863214493E0
1.586949594E1,-1.435693651E-1,1.435693540E-2,9.877572060E0
1.587917484E1,-1.531406492E-1,1.914258115E-2,9.872786522E0
1.588885609E1,-1.435693651E-1,1.914258115E-2,9.872786522E0
1.589853578E1,-1.435693651E-1,9.571290575E-3,9.863214493E0
1.590821609E1,-1.387837082E-1,1.914258115E-2,9.882357597E0
1.591789635E1,-1.483550072E-1,9.571290575E-3,9.882357597E0
1.592757682E1,-1.435693651E-1,1.435693540E-2,9.868000984E0
1.593725797E1,-1.387837082E-1,1.435693540E-2,9.882357597E0
1.594693724E1,-1.292124242E-1,3.349951655E-2,9.872786522E0
1.595661864E1,-1.387837082E-1,3.349951655E-2,9.868000984E0
1.596629937E1,-1.579262912E-1,2.392822690E-2,9.882357597E0
1.597597958E1,-1.483550072E-1,1.435693540E-2,9.877572060E0
1.598565979E1,-1.435693651E-1,1.435693540E-2,9.891928673E0
1.599534005E1,-1.579262912E-1,2.871387079E-2,9.877572060E0
1.600502042E1,-1.387837082E-1,2.392822690E-2,9.868000984E0
1.601470203E1,-1.387837082E-1,2.392822690E-2,9.872786522E0
1.602438307E1,-1.483550072E-1,1.914258115E-2,9.887143135E0
1.603406411E1,-1.435693651E-1,1.435693540E-2,9.882357597E0
1.604374276E1,-1.339980662E-1,0.000000000E0,9.891928673E0
1.605342255E1,-1.387837082E-1,2.871387079E-2,9.872786522E0
1.606310177E1,-1.483550072E-1,4.785645287E-3,9.872786522E0
1.607278057E1,-1.435693651E-1,2.392822690E-2,9.877572060E0
1.608246073E1,-1.435693651E-1,2.871387079E-2,9.877572060E0
1.609214016E1,-1.435693651E-1,3.828516230E-2,9.872786522E0
1.610182010E1,-1.244267747E-1,1.914258115E-2,9.868000984E0
1.611149990E1,-1.483550072E-1,2.871387079E-2,9.891928673E0
1.612117906E1,-1.435693651E-1,1.914258115E-2,9.872786522E0
1.613085838E1,-1.531406492E-1,3.828516230E-2,9.872786522E0
1.614053818E1,-1.435693651E-1,4.307080805E-2,9.887143135E0
1.615021870E1,-1.483550072E-1,1.914258115E-2,9.877572060E0
1.615989823E1,-1.435693651E-1,2.392822690E-2,9.872786522E0
1.616957818E1,-1.196411327E-1,3.828516230E-2,9.882357597E0
1.617925693E1,-1.483550072E-1,1.914258115E-2,9.882357597E0
1.618893708E1,-1.339980662E-1,1.914258115E-2,9.872786522E0
1.619861781E1,-1.339980662E-1,2.392822690E-2,9.868000984E0
1.620829880E1,-1.387837082E-1,3.349951655E-2,9.872786522E0
1.621797995E1,-1.435693651E-1,1.914258115E-2,9.872786522E0
1.622766016E1,-1.435693651E-1,2.871387079E-2,9.872786522E0
1.623734031E1,-1.387837082E-1,1.435693540E-2,9.872786522E0
1.624702167E1,-1.339980662E-1,2.392822690E-2,9.887143135E0
1.625670167E1,-1.244267747E-1,9.571290575E-3,9.896714211E0
1.626638031E1,-1.387837082E-1,1.914258115E-2,9.896714211E0
1.627605964E1,-1.435693651E-1,1.914258115E-2,9.882357597E0
1.628573979E1,-1.339980662E-1,1.914258115E-2,9.887143135E0
1.629542026E1,-1.531406492E-1,2.392822690E-2,9.868000984E0
1.630509958E1,-1.387837082E-1,2.871387079E-2,9.863214493E0
1.631477974E1,-1.292124242E-1,2.871387079E-2,9.872786522E0
1.632446026E1,-1.483550072E-1,2.871387079E-2,9.872786522E0
1.633414057E1,-1.435693651E-1,2.871387079E-2,9.872786522E0
1.634382026E1,-1.579262912E-1,2.392822690E-2,9.877572060E0
1.635349990E1,-1.339980662E-1,2.392822690E-2,9.882357597E0
1.636317974E1,-1.627119333E-1,3.349951655E-2,9.887143135E0
1.637285906E1,-1.196411327E-1,0.000000000E0,9.872786522E0
1.638253937E1,-1.387837082E-1,2.392822690E-2,9.887143135E0
1.639221911E1,-1.387837082E-1,2.392822690E-2,9.877572060E0
1.640189937E1,-1.627119333E-1,2.392822690E-2,9.877572060E0
1.641158026E1,-1.483550072E-1,1.435693540E-2,9.891928673E0
1.642126068E1,-1.292124242E-1,1.435693540E-2,9.887143135E0
1.643094115E1,-1.435693651E-1,9.571290575E-3,9.887143135E0
1.644062078E1,-1.387837082E-1,3.828516230E-2,9.868000984E0
1.645030062E1,-1.387837082E-1,4.785645287E-3,9.877572060E0
1.645998026E1,-1.387837082E-1,1.914258115E-2,9.882357597E0
1.646965995E1,-1.339980662E-1,3.349951655E-2,9.877572060E0
1.647933964E1,-1.483550072E-1,1.435693540E-2,9.872786522E0
1.648902042E1,-1.483550072E-1,2.871387079E-2,9.896714211E0
1.649870057E1,-1.387837082E-1,3.349951655E-2,9.863214493E0
1.650838073E1,-1.483550072E-1,2.392822690E-2,9.872786522E0
1.651806109E1,-1.339980662E-1,2.871387079E-2,9.872786522E0
1.652774114E1,-1.339980662E-1,1.914258115E-2,9.887143135E0
1.653742146E1,-1.387837082E-1,4.785645287E-3,9.882357597E0
1.654710182E1,-1.339980662E-1,1.914258115E-2,9.868000984E0
1.655678292E1,-1.435693651E-1,3.828516230E-2,9.877572060E0
1.656646156E1,-1.292124242E-1,3.349951655E-2,9.882357597E0
1.657614198E1,-1.387837082E-1,9.571290575E-3,9.877572060E0
1.658582370E1,-1.579262912E-1,1.914258115E-2,9.877572060E0
1.659550583E1,-1.483550072E-1,3.349951655E-2,9.872786522E0
1.660518651E1,-1.531406492E-1,2.871387079E-2,9.872786522E0
1.661486740E1,-1.531406492E-1,1.914258115E-2,9.877572060E0
1.662454786E1,-1.339980662E-1,2.871387079E-2,9.877572060E0
1.663422797E1,-1.339980662E-1,1.914258115E-2,9.877572060E0
1.664390583E1,-1.339980662E-1,2.392822690E-2,9.882357597E0
1.665358500E1,-1.483550072E-1,3.828516230E-2,9.877572060E0
1.666326380E1,-1.531406492E-1,3.828516230E-2,9.882357597E0
1.667294469E1,-1.387837082E-1,2.871387079E-2,9.882357597E0
1.668262479E1,-1.674975902E-1,2.392822690E-2,9.877572060E0
1.669230318E1,-1.531406492E-1,2.392822690E-2,9.868000984E0
1.670198297E1,-1.435693651E-1,2.871387079E-2,9.863214493E0
1.671166338E1,-1.387837082E-1,2.392822690E-2,9.877572060E0
1.672134208E1,-1.483550072E-1,1.914258115E-2,9.877572060E0
1.673102224E1,-1.435693651E-1,1.914258115E-2,9.877572060E0
1.674070437E1,-1.483550072E-1,1.435693540E-2,9.887143135E0
1.675038484E1,-1.435693651E-1,1.435693540E-2,9.872786522E0
1.676006667E1,-1.435693651E-1,1.435693540E-2,9.877572060E0
1.676974875E1,-1.339980662E-1,9.571290575E-3,9.882357597E0
1.677943083E1,-1.531406492E-1,1.914258115E-2,9.863214493E0
1.678911297E1,-1.339980662E-1,1.435693540E-2,9.872786522E0
1.679879464E1,-1.387837082E-1,2.392822690E-2,9.882357597E0
1.680847536E1,-1.435693651E-1,4.785645287E-3,9.877572060E0
1.681815594E1,-1.387837082E-1,2.871387079E-2,9.877572060E0
1.682783578E1,-1.435693651E-1,9.571290575E-3,9.877572060E0
1.683751557E1,-1.627119333E-1,1.435693540E-2,9.868000984E0
1.684719573E1,-1.531406492E-1,3.349951655E-2,9.877572060E0
1.685687724E1,-1.292124242E-1,2.392822690E-2,9.877572060E0
1.686655714E1,-1.339980662E-1,3.828516230E-2,9.891928673E0
1.687623766E1,-1.435693651E-1,2.392822690E-2,9.882357597E0
1.688591740E1,-1.435693651E-1,1.914258115E-2,9.877572060E0
1.689559687E1,-1.339980662E-1,3.828516230E-2,9.877572060E0
1.690527589E1,-1.339980662E-1,2.871387079E-2,9.906285286E0
1.691495526E1,-1.483550072E-1,2.871387079E-2,9.868000984E0
1.692463531E1,-1.531406492E-1,1.914258115E-2,9.887143135E0
1.693431547E1,-1.435693651E-1,1.435693540E-2,9.872786522E0
1.694399604E1,-1.579262912E-1,9.571290575E-3,9.877572060E0
1.695367630E1,-1.387837082E-1,1.914258115E-2,9.872786522E0
1.696335573E1,-1.483550072E-1,2.392822690E-2,9.882357597E0
1.697303651E1,-1.483550072E-1,3.349951655E-2,9.868000984E0
1.698271776E1,-1.387837082E-1,2.871387079E-2,9.882357597E0
1.699239844E1,-1.531406492E-1,4.785645287E-3,9.891928673E0
1.700207870E1,-1.435693651E-1,1.914258115E-2,9.872786522E0
1.701175797E1,-1.387837082E-1,9.571290575E-3,9.882357597E0
1.702143729E1,-1.435693651E-1,3.349951655E-2,9.872786522E0
1.703111641E1,-1.339980662E-1,2.871387079E-2,9.872786522E0
1.704079604E1,-1.435693651E-1,1.914258115E-2,9.891928673E0
1.705047437E1,-1.531406492E-1,4.785645287E-3,9.872786522E0
1.706015271E1,-1.483550072E-1,1.914258115E-2,9.882357597E0
1.706983208E1,-1.483550072E-1,3.349951655E-2,9.882357597E0
1.707951208E1,-1.531406492E-1,3.349951655E-2,9.887143135E0
1.708919276E1,-1.339980662E-1,1.914258115E-2,9.877572060E0
1.709887307E1,-1.339980662E-1,1.435693540E-2,9.887143135E0
1.710855474E1,-1.387837082E-1,1.435693540E-2,9.891928673E0
1.711823526E1,-1.435693651E-1,2.392822690E-2,9.872786522E0
1.712791760E1,-1.531406492E-1,2.871387079E-2,9.877572060E0
1.713760026E1,-1.339980662E-1,1.435693540E-2,9.872786522E0
1.714728120E1,-1.435693651E-1,2.871387079E-2,9.877572060E0
1.715696130E1,-1.483550072E-1,2.871387079E-2,9.877572060E0
1.716664286E1,-1.483550072E-1,1.914258115E-2,9.882357597E0
1.717632349E1,-1.435693651E-1,1.435693540E-2,9.872786522E0
1.718600328E1,-1.483550072E-1,1.914258115E-2,9.887143135E0
1.719568234E1,-1.483550072E-1,2.392822690E-2,9.882357597E0
1.720536276E1,-1.483550072E-1,2.871387079E-2,9.887143135E0
1.721504354E1,-1.531406492E-1,2.392822690E-2,9.887143135E0
1.722472370E1,-1.579262912E-1,2.392822690E-2,9.887143135E0
1.723440380E1,-1.531406492E-1,3.349951655E-2,9.868000984E0
1.724408417E1,-1.483550072E-1,4.307080805E-2,9.882357597E0
1.725376297E1,-1.435693651E-1,2.871387079E-2,9.882357597E0
1.726344323E1,-1.435693651E-1,4.785645381E-2,9.868000984E0
1.727312276E1,-1.483550072E-1,3.828516230E-2,9.891928673E0
1.728280344E1,-1.339980662E-1,3.349951655E-2,9.896714211E0
1.729248266E1,-1.483550072E-1,1.435693540E-2,9.882357597E0
1.730216359E1,-1.435693651E-1,2.871387079E-2,9.877572060E0
1.731184203E1,-1.483550072E-1,1.435693540E-2,9.887143135E0
1.732152141E1,-1.435693651E-1,1.914258115E-2,9.887143135E0
1.733120094E1,-1.387837082E-1,9.571290575E-3,9.877572060E0
1.734088088E1,-1.483550072E-1,2.392822690E-2,9.877572060E0
1.735056031E1,-1.387837082E-1,1.435693540E-2,9.887143135E0
1.736023875E1,-1.292124242E-1,9.571290575E-3,9.877572060E0
1.736991797E1,-1.483550072E-1,1.435693540E-2,9.877572060E0
1.737959667E1,-1.339980662E-1,3.349951655E-2,9.887143135E0
1.738927406E1,-1.387837082E-1,3.349951655E-2,9.882357597E0
1.739895453E1,-1.387837082E-1,1.435693540E-2,9.877572060E0
1.740863307E1,-1.435693651E-1,1.914258115E-2,9.872786522E0
1.741831135E1,-1.387837082E-1,3.828516230E-2,9.863214493E0
1.742799114E1,-1.483550072E-1,2.871387079E-2,9.872786522E0
1.743767141E1,-1.339980662E-1,1.914258115E-2,9.877572060E0
1.744735146E1,-1.483550072E-1,2.871387079E-2,9.877572060E0
1.745703172E1,-1.483550072E-1,3.828516230E-2,9.868000984E0
1.746671114E1,-1.387837082E-1,2.392822690E-2,9.882357597E0
1.747639104E1,-1.387837082E-1,1.914258115E-2,9.872786522E0
1.748607177E1,-1.387837082E-1,3.349951655E-2,9.887143135E0
1.749575099E1,-1.483550072E-1,1.914258115E-2,9.887143135E0
1.750543104E1,-1.435693651E-1,1.914258115E-2,9.872786522E0
1.751511089E1,-1.579262912E-1,1.914258115E-2,9.872786522E0
1.752479115E1,-1.483550072E-1,2.871387079E-2,9.887143135E0
1.753447062E1,-1.292124242E-1,2.392822690E-2,9.882357597E0
1.754415026E1,-1.483550072E-1,2.871387079E-2,9.887143135E0
1.755382922E1,-1.339980662E-1,2.871387079E-2,9.882357597E0
1.756351010E1,-1.531406492E-1,9.571290575E-3,9.882357597E0
1.757319130E1,-1.435693651E-1,9.571290575E-3,9.872786522E0
1.758287120E1,-1.339980662E-1,2.871387079E-2,9.896714211E0
1.759255177E1,-1.435693651E-1,3.349951655E-2,9.891928673E0
1.760223255E1,-1.244267747E-1,9.571290575E-3,9.877572060E0
1.761191255E1,-1.339980662E-1,1.914258115E-2,9.872786522E0
1.762159286E1,-1.531406492E-1,9.571290575E-3,9.882357597E0
1.763127208E1,-1.387837082E-1,2.392822690E-2,9.877572060E0
1.764095219E1,-1.579262912E-1,9.571290575E-3,9.868000984E0
1.765063193E1,-1.531406492E-1,3.349951655E-2,9.887143135E0
1.766031177E1,-1.387837082E-1,4.785645287E-3,9.882357597E0
1.766999245E1,-1.531406492E-1,1.435693540E-2,9.887143135E0
1.767967167E1,-1.483550072E-1,2.392822690E-2,9.877572060E0
1.768935146E1,-1.339980662E-1,1.435693540E-2,9.887143135E0
1.769903115E1,-1.387837082E-1,2.392822690E-2,9.872786522E0
1.770871083E1,-1.435693651E-1,2.392822690E-2,9.882357597E0
1.771839172E1,-1.435693651E-1,1.435693540E-2,9.872786522E0
1.772807141E1,-1.435693651E-1,1.435693540E-2,9.882357597E0
1.773775068E1,-1.387837082E-1,3.349951655E-2,9.872786522E0
1.774743016E1,-1.579262912E-1,1.914258115E-2,9.882357597E0
1.775711068E1,-1.483550072E-1,1.914258115E-2,9.877572060E0
1.776679094E1,-1.339980662E-1,3.828516230E-2,9.872786522E0
1.777647000E1,-1.435693651E-1,2.392822690E-2,9.868000984E0
1.778614891E1,-1.435693651E-1,3.828516230E-2,9.887143135E0
1.779582792E1,-1.483550072E-1,2.392822690E-2,9.872786522E0
1.780550714E1,-1.435693651E-1,2.392822690E-2,9.863214493E0
1.781518578E1,-1.435693651E-1,3.828516230E-2,9.882357597E0
1.782486516E1,-1.627119333E-1,1.914258115E-2,9.868000984E0
1.783454359E1,-1.483550072E-1,9.571290575E-3,9.868000984E0
1.784422271E1,-1.579262912E-1,1.435693540E-2,9.887143135E0
1.785390187E1,-1.339980662E-1,3.349951655E-2,9.877572060E0
1.786358161E1,-1.531406492E-1,1.914258115E-2,9.877572060E0
1.787326088E1,-1.435693651E-1,1.435693540E-2,9.887143135E0
1.788294026E1,-1.339980662E-1,1.435693540E-2,9.891928673E0
1.789261964E1,-1.483550072E-1,2.392822690E-2,9.887143135E0
1.790229974E1,-1.483550072E-1,1.914258115E-2,9.882357597E0
1.791197833E1,-1.579262912E-1,2.871387079E-2,9.887143135E0
1.792165755E1,-1.483550072E-1,1.914258115E-2,9.882357597E0
1.793133729E1,-1.435693651E-1,1.914258115E-2,9.887143135E0
1.794101714E1,-1.339980662E-1,2.871387079E-2,9.877572060E0
1.795069667E1,-1.387837082E-1,2.871387079E-2,9.882357597E0
1.796037734E1,-1.483550072E-1,1.914258115E-2,9.872786522E0
1.797005526E1,-1.435693651E-1,2.392822690E-2,9.877572060E0
1.797973464E1,-1.339980662E-1,1.435693540E-2,9.882357597E0
1.798941396E1,-1.483550072E-1,1.914258115E-2,9.877572060E0
1.799909365E1,-1.435693651E-1,2.871387079E-2,9.877572060E0
1.800877479E1,-1.387837082E-1,1.435693540E-2,9.877572060E0
1.801845458E1,-1.579262912E-1,1.435693540E-2,9.877572060E0
1.802813401E1,-1.483550072E-1,9.571290575E-3,9.877572060E0
1.803781380E1,-1.435693651E-1,2.871387079E-2,9.887143135E0
1.804749328E1,-1.387837082E-1,4.785645381E-2,9.882357597E0
1.805717281E1,-1.483550072E-1,3.828516230E-2,9.872786522E0
1.806685187E1,-1.579262912E-1,2.392822690E-2,9.887143135E0
1.807653083E1,-1.483550072E-1,1.914258115E-2,9.877572060E0
1.808621031E1,-1.483550072E-1,9.571290575E-3,9.882357597E0
1.809589021E1,-1.435693651E-1,2.392822690E-2,9.872786522E0
1.810557068E1,-1.387837082E-1,1.914258115E-2,9.872786522E0
1.811525099E1,-1.387837082E-1,9.571290575E-3,9.872786522E0
1.812492964E1,-1.483550072E-1,1.435693540E-2,9.868000984E0
1.813461042E1,-1.483550072E-1,2.392822690E-2,9.877572060E0
1.814429104E1,-1.483550072E-1,2.871387079E-2,9.891928673E0
1.815397104E1,-1.435693651E-1,3.828516230E-2,9.887143135E0
1.816365109E1,-1.435693651E-1,1.914258115E-2,9.863214493E0
1.817333047E1,-1.483550072E-1,4.785645287E-3,9.891928673E0
1.818301115E1,-1.483550072E-1,9.571290575E-3,9.882357597E0
1.819268990E1,-1.387837082E-1,4.785645287E-3,9.872786522E0
1.820236906E1,-1.531406492E-1,1.435693540E-2,9.872786522E0
1.821204755E1,-1.244267747E-1,2.871387079E-2,9.877572060E0
1.822172771E1,-1.292124242E-1,4.785645287E-3,9.877572060E0
1.823140698E1,-1.435693651E-1,2.392822690E-2,9.882357597E0
1.824108510E1,-1.244267747E-1,2.392822690E-2,9.877572060E0
1.825076708E1,-1.483550072E-1,1.914258115E-2,9.868000984E0
1.826044661E1,-1.579262912E-1,9.571290575E-3,9.863214493E0
1.827012620E1,-1.531406492E-1,1.914258115E-2,9.872786522E0
1.827980708E1,-1.387837082E-1,2.392822690E-2,9.887143135E0
1.828948594E1,-1.387837082E-1,3.828516230E-2,9.872786522E0
1.829916484E1,-1.435693651E-1,1.914258115E-2,9.891928673E0
1.830884474E1,-1.339980662E-1,1.914258115E-2,9.882357597E0
1.831852427E1,-1.435693651E-1,2.871387079E-2,9.882357597E0
1.832820562E1,-1.292124242E-1,2.871387079E-2,9.872786522E0
1.833788687E1,-1.387837082E-1,1.914258115E-2,9.877572060E0
1.834756714E1,-1.387837082E-1,2.392822690E-2,9.877572060E0
1.835724635E1,-1.387837082E-1,1.435693540E-2,9.891928673E0
1.836692740E1,-1.292124242E-1,1.435693540E-2,9.872786522E0
1.837660734E1,-1.435693651E-1,4.307080805E-2,9.872786522E0
1.838628844E1,-1.435693651E-1,2.392822690E-2,9.882357597E0
1.839597047E1,-1.244267747E-1,1.914258115E-2,9.872786522E0
1.840565099E1,-1.387837082E-1,3.349951655E-2,9.872786522E0
1.841533094E1,-1.339980662E-1,9.571290575E-3,9.882357597E0
1.842501135E1,-1.387837082E-1,1.914258115E-2,9.872786522E0
1.843469266E1,-1.387837082E-1,2.871387079E-2,9.882357597E0
1.844437391E1,-1.531406492E-1,2.392822690E-2,9.877572060E0
1.845405500E1,-1.435693651E-1,2.871387079E-2,9.882357597E0
1.846373630E1,-1.531406492E-1,4.785645381E-2,9.863214493E0
1.847341646E1,-1.483550072E-1,1.914258115E-2,9.887143135E0
1.848309661E1,-1.483550072E-1,1.914258115E-2,9.877572060E0
1.849277828E1,-1.483550072E-1,3.828516230E-2,9.877572060E0
1.850245922E1,-1.387837082E-1,3.349951655E-2,9.882357597E0
1.851213849E1,-1.531406492E-1,9.571290575E-3,9.891928673E0
1.852181870E1,-1.483550072E-1,3.828516230E-2,9.872786522E0
1.853149937E1,-1.435693651E-1,2.871387079E-2,9.868000984E0
1.854117943E1,-1.531406492E-1,2.392822690E-2,9.872786522E0
1.855086010E1,-1.292124242E-1,1.435693540E-2,9.882357597E0
1.856053948E1,-1.435693651E-1,1.435693540E-2,9.872786522E0
1.857022036E1,-1.483550072E-1,3.349951655E-2,9.882357597E0
1.857990000E1,-1.483550072E-1,1.914258115E-2,9.872786522E0
1.858958135E1,-1.292124242E-1,1.435693540E-2,9.877572060E0
1.859926292E1,-1.339980662E-1,1.435693540E-2,9.877572060E0
1.860894354E1,-1.531406492E-1,3.349951655E-2,9.872786522E0
1.861862464E1,-1.435693651E-1,1.914258115E-2,9.868000984E0
1.862830391E1,-1.435693651E-1,3.349951655E-2,9.891928673E0
1.863798312E1,-1.387837082E-1,2.871387079E-2,9.872786522E0
1.864766281E1,-1.339980662E-1,2.392822690E-2,9.882357597E0
1.865734323E1,-1.531406492E-1,2.392822690E-2,9.877572060E0
1.866702338E1,-1.483550072E-1,4.785645287E-3,9.872786522E0
1.867670422E1,-1.387837082E-1,2.392822690E-2,9.872786522E0
1.868638375E1,-1.579262912E-1,4.785645287E-3,9.887143135E0
1.869606552E1,-1.387837082E-1,2.392822690E-2,9.891928673E0
1.870574667E1,-1.387837082E-1,1.435693540E-2,9.872786522E0
1.871542615E1,-1.292124242E-1,2.871387079E-2,9.868000984E0
1.872510719E1,-1.339980662E-1,1.914258115E-2,9.882357597E0
1.873478724E1,-1.387837082E-1,2.392822690E-2,9.872786522E0
1.874446682E1,-1.531406492E-1,1.914258115E-2,9.882357597E0
1.875414687E1,-1.531406492E-1,2.871387079E-2,9.877572060E0
1.876382677E1,-1.531406492E-1,0.000000000E0,9.863214493E0
1.877350516E1,-1.387837082E-1,2.392822690E-2,9.877572060E0
1.878318531E1,-1.292124242E-1,2.392822690E-2,9.872786522E0
1.879286630E1,-1.387837082E-1,3.349951655E-2,9.877572060E0
1.880254620E1,-1.339980662E-1,2.392822690E-2,9.882357597E0
1.881222542E1,-1.435693651E-1,1.914258115E-2,9.872786522E0
1.882190297E1,-1.531406492E-1,2.392822690E-2,9.877572060E0
1.883158156E1,-1.435693651E-1,1.914258115E-2,9.887143135E0
1.884126312E1,-1.244267747E-1,4.785645287E-3,9.872786522E0
1.885094250E1,-1.483550072E-1,1.914258115E-2,9.872786522E0
1.886062156E1,-1.483550072E-1,2.392822690E-2,9.877572060E0
1.887030214E1,-1.483550072E-1,3.349951655E-2,9.882357597E0
1.887998099E1,-1.435693651E-1,2.392822690E-2,9.872786522E0
1.888966167E1,-1.339980662E-1,9.571290575E-3,9.882357597E0
1.889934167E1,-1.339980662E-1,2.392822690E-2,9.887143135E0
1.890902203E1,-1.435693651E-1,1.914258115E-2,9.863214493E0
1.891870281E1,-1.483550072E-1,2.871387079E-2,9.872786522E0
1.892838474E1,-1.435693651E-1,1.435693540E-2,9.872786522E0
1.893806698E1,-1.292124242E-1,1.435693540E-2,9.877572060E0
1.894774864E1,-1.483550072E-1,1.435693540E-2,9.891928673E0
1.895742979E1,-1.435693651E-1,1.914258115E-2,9.872786522E0
1.896711042E1,-1.435693651E-1,1.435693540E-2,9.868000984E0
1.897679193E1,-1.483550072E-1,2.392822690E-2,9.877572060E0
1.898647255E1,-1.435693651E-1,1.914258115E-2,9.868000984E0
1.899615338E1,-1.387837082E-1,2.392822690E-2,9.863214493E0
1.900583417E1,-1.387837082E-1,1.914258115E-2,9.891928673E0
1.901551396E1,-1.387837082E-1,1.435693540E-2,9.872786522E0
1.902519338E1,-1.483550072E-1,1.435693540E-2,9.877572060E0
1.903487385E1,-1.435693651E-1,1.435693540E-2,9.882357597E0
1.904455443E1,-1.387837082E-1,2.871387079E-2,9.877572060E0
1.905423396E1,-1.435693651E-1,1.435693540E-2,9.877572060E0
1.906391417E1,-1.579262912E-1,2.392822690E-2,9.872786522E0
1.907359396E1,-1.339980662E-1,2.392822690E-2,9.882357597E0
1.908327464E1,-1.483550072E-1,1.914258115E-2,9.868000984E0
1.909295536E1,-1.483550072E-1,2.392822690E-2,9.872786522E0
1.910263656E1,-1.483550072E-1,1.914258115E-2,9.868000984E0
1.911231729E1,-1.339980662E-1,1.435693540E-2,9.872786522E0
1.912199854E1,-1.387837082E-1,2.871387079E-2,9.858428955E0
1.913167833E1,-1.339980662E-1,1.435693540E-2,9.868000984E0
1.914135792E1,-1.483550072E-1,2.871387079E-2,9.872786522E0
1.915103766E1,-1.483550072E-1,1.914258115E-2,9.877572060E0
1.916071802E1,-1.483550072E-1,1.914258115E-2,9.872786522E0
1.917039776E1,-1.435693651E-1,1.435693540E-2,9.858428955E0
1.918007911E1,-1.531406492E-1,1.435693540E-2,9.877572060E0
1.918975880E1,-1.435693651E-1,1.914258115E-2,9.882357597E0
1.919943781E1,-1.579262912E-1,2.392822690E-2,9.882357597E0
1.920911812E1,-1.339980662E-1,1.914258115E-2,9.868000984E0
1.921879911E1,-1.483550072E-1,1.914258115E-2,9.882357597E0
1.922848104E1,-1.387837082E-1,2.871387079E-2,9.882357597E0
1.923816224E1,-1.387837082E-1,2.871387079E-2,9.877572060E0
1.924784260E1,-1.579262912E-1,9.571290575E-3,9.877572060E0
1.925752271E1,-1.531406492E-1,1.435693540E-2,9.877572060E0
1.926720307E1,-1.531406492E-1,2.392822690E-2,9.887143135E0
1.927688370E1,-1.483550072E-1,1.435693540E-2,9.877572060E0
1.928656401E1,-1.387837082E-1,3.828516230E-2,9.868000984E0
1.929624255E1,-1.292124242E-1,2.392822690E-2,9.882357597E0
1.930592255E1,-1.435693651E-1,2.871387079E-2,9.882357597E0
1.931560214E1,-1.531406492E-1,4.785645287E-3,9.877572060E0
1.932528094E1,-1.531406492E-1,1.435693540E-2,9.868000984E0
1.933496047E1,-1.579262912E-1,1.435693540E-2,9.877572060E0
1.934463943E1,-1.483550072E-1,1.914258115E-2,9.872786522E0
1.935432005E1,-1.483550072E-1,2.392822690E-2,9.872786522E0
1.936399979E1,-1.579262912E-1,2.392822690E-2,9.872786522E0
1.937367802E1,-1.435693651E-1,2.392822690E-2,9.877572060E0
1.938335687E1,-1.435693651E-1,1.914258115E-2,9.887143135E0
1.939303719E1,-1.339980662E-1,1.914258115E-2,9.872786522E0
1.940271823E1,-1.483550072E-1,2.392822690E-2,9.877572060E0
1.941239833E1,-1.483550072E-1,1.914258115E-2,9.887143135E0
1.942207875E1,-1.435693651E-1,2.871387079E-2,9.877572060E0
1.943175937E1,-1.435693651E-1,2.392822690E-2,9.872786522E0
1.944143922E1,-1.579262912E-1,2.392822690E-2,9.877572060E0
1.945111885E1,-1.292124242E-1,1.435693540E-2,9.872786522E0
1.946079698E1,-1.387837082E-1,2.392822690E-2,9.882357597E0
1.947047646E1,-1.339980662E-1,1.435693540E-2,9.863214493E0
1.948015562E1,-1.483550072E-1,2.392822690E-2,9.872786522E0
1.948983510E1,-1.435693651E-1,4.785645287E-3,9.868000984E0
1.949951214E1,-1.339980662E-1,1.435693540E-2,9.877572060E0
1.950919229E1,-1.435693651E-1,2.871387079E-2,9.872786522E0
1.951887349E1,-1.531406492E-1,2.392822690E-2,9.877572060E0
1.952855193E1,-1.435693651E-1,3.828516230E-2,9.863214493E0
1.953823120E1,-1.244267747E-1,3.349951655E-2,9.872786522E0
1.954790953E1,-1.387837082E-1,1.914258115E-2,9.863214493E0
1.955758865E1,-1.339980662E-1,2.871387079E-2,9.877572060E0
1.956726729E1,-1.339980662E-1,1.435693540E-2,9.877572060E0
1.957694547E1,-1.579262912E-1,2.392822690E-2,9.872786522E0
1.958662474E1,-1.435693651E-1,3.349951655E-2,9.868000984E0
1.959630276E1,-1.339980662E-1,2.392822690E-2,9.882357597E0
1.960598135E1,-1.435693651E-1,2.392822690E-2,9.877572060E0
1.961566161E1,-1.435693651E-1,2.871387079E-2,9.887143135E0
1.962534130E1,-1.483550072E-1,2.871387079E-2,9.877572060E0
1.963502089E1,-1.387837082E-1,2.871387079E-2,9.877572060E0
1.964469943E1,-1.531406492E-1,2.871387079E-2,9.877572060E0
1.965437896E1,-1.435693651E-1,2.871387079E-2,9.872786522E0
1.966406005E1,-1.387837082E-1,0.000000000E0,9.887143135E0
1.967373927E1,-1.531406492E-1,2.392822690E-2,9.877572060E0
1.968341906E1,-1.483550072E-1,1.435693540E-2,9.891928673E0
1.969309828E1,-1.483550072E-1,3.349951655E-2,9.887143135E0
1.970277651E1,-1.579262912E-1,3.828516230E-2,9.877572060E0
1.971245641E1,-1.387837082E-1,2.392822690E-2,9.877572060E0
1.972213578E1,-1.387837082E-1,2.392822690E-2,9.882357597E0
1.973181557E1,-1.483550072E-1,2.392822690E-2,9.896714211E0
1.974149417E1,-1.483550072E-1,1.914258115E-2,9.882357597E0
1.975117432E1,-1.483550072E-1,3.828516230E-2,9.882357597E0
