"Time (s)","Acceleration x (m/s^2)","Acceleration y (m/s^2)","Acceleration z (m/s^2)"
4.376653300E-2,2.378465652E0,-2.584248483E-1,9.628718376E0
5.344997000E-2,2.478964329E0,-2.823530734E-1,9.628718376E0
6.313366800E-2,2.498106956E0,-2.201396823E-1,9.509077072E0
7.281840800E-2,2.488535643E0,-9.092725813E-2,9.336793900E0
8.250231400E-2,2.407179594E0,1.435693540E-2,9.413364410E0
9.218622000E-2,2.244467735E0,8.614161611E-2,9.504291534E0
1.018706990E-1,2.182254314E0,9.571290575E-3,9.336793900E0
1.115556990E-1,2.282752752E0,-4.785645381E-2,9.174081802E0
1.212399180E-1,2.383251429E0,-9.571290761E-2,9.193224907E0
1.309247100E-1,2.536391973E0,-1.627119333E-1,9.327222824E0
1.406086680E-1,2.593819857E0,-1.339980662E-1,9.552147865E0
1.502935120E-1,2.522035122E0,-7.657032460E-2,9.633503914E0
1.599787720E-1,2.488535643E0,1.435693651E-1,9.332008362E0
1.696626780E-1,2.368894339E0,2.967100143E-1,1.014078236E1
1.793469490E-1,2.321038008E0,2.967100143E-1,1.023649502E1
1.890330430E-1,2.254039049E0,3.302095234E-1,1.015513897E1
1.987183030E-1,2.167897224E0,4.689932466E-1,1.013599682E1
2.084021580E-1,1.842473388E0,5.599204898E-1,1.003549862E1
2.180876260E-1,1.555334687E0,6.317051649E-1,1.000199890E1
2.277721580E-1,7.034898400E-1,1.095912814E0,8.360522270E0
2.374575220E-1,1.048056364E0,1.320838094E0,9.126225471E0
2.471431990E-1,1.684547186E0,1.316052437E0,1.104048347E1
2.568287720E-1,1.847259045E0,1.387837172E0,1.098305607E1
2.665135120E-1,1.952543259E0,1.320838094E0,1.030827999E1
2.761983030E-1,1.957328916E0,1.272981644E0,9.839286804E0
2.858812720E-1,1.890329838E0,1.287338614E0,9.537791252E0
2.955654390E-1,1.799402595E0,1.134197950E0,9.231510162E0
3.052490850E-1,1.665404558E0,6.699903607E-1,9.360722542E0
3.149333030E-1,1.469193101E0,5.551348329E-1,9.710074425E0
3.246176260E-1,1.406979680E0,7.082754970E-1,9.628718376E0
3.343006470E-1,1.464407444E0,8.087740541E-1,9.671789169E0
3.439850220E-1,1.550549030E0,6.699903607E-1,1.011206818E1
3.536701260E-1,1.646261930E0,6.221339107E-1,1.030827999E1
3.633547100E-1,1.674975872E0,7.657032609E-1,1.043270683E1
3.730385120E-1,1.655833244E0,8.709874153E-1,1.051406288E1
3.827245530E-1,1.493121386E0,8.518448472E-1,1.056191921E1
3.924106470E-1,1.316052437E0,7.896314859E-1,1.045184898E1
4.020973660E-1,1.138983607E0,7.896314859E-1,1.019820976E1
4.117820530E-1,1.105484009E0,8.327022791E-1,1.021256733E1
4.214663240E-1,1.062413216E0,8.901300430E-1,1.023649502E1
4.311520010E-1,1.014556766E0,9.379864931E-1,1.024128056E1
4.408374700E-1,8.997012973E-1,1.071984529E0,1.042792130E1
4.505205430E-1,7.992027402E-1,1.134197950E0,1.039442158E1
4.602047100E-1,7.465606928E-1,1.138983607E0,1.030827999E1
4.698904390E-1,7.561319470E-1,1.182054400E0,1.025563812E1
4.795743450E-1,8.662018180E-1,1.182054400E0,1.027956581E1
4.892597620E-1,9.332008362E-1,1.234696507E0,1.017428207E1
4.989459080E-1,9.667003751E-1,1.191625714E0,1.014556789E1
5.086306990E-1,8.901300430E-1,1.057627559E0,9.939785004E0
5.183167410E-1,7.848458290E-1,1.024128079E0,9.824930191E0
5.280022100E-1,6.891329288E-1,1.095912814E0,9.853643417E0
5.376879390E-1,5.790630579E-1,1.105484009E0,9.801001549E0
5.473727300E-1,4.881358147E-1,9.714859724E-1,9.963713646E0
5.570579390E-1,4.546363056E-1,8.757730722E-1,1.004985523E1
5.667434600E-1,4.402793646E-1,1.004985452E0,1.005464077E1
5.764288760E-1,4.259224236E-1,1.167697430E0,1.012164021E1
5.861146050E-1,3.349951804E-1,1.258624673E0,1.015992451E1
5.958006470E-1,1.387837082E-1,1.186840057E0,1.012642574E1
6.054858550E-1,-8.614161611E-2,1.172483087E0,9.954142570E0
6.151705430E-1,-2.679961324E-1,1.153340459E0,9.925428391E0
6.248553350E-1,-3.493520916E-1,1.201196909E0,1.009292603E1
6.345409600E-1,-5.120640397E-1,1.134197950E0,1.003549862E1
6.442256990E-1,-6.508477330E-1,1.043270707E0,1.011685371E1
6.539115850E-1,-8.853443861E-1,8.183453679E-1,9.968499184E0
6.635964800E-1,-9.810572863E-1,7.034898400E-1,9.810572624E0
6.732818450E-1,-1.148554921E0,7.322037220E-1,9.379864693E0
6.829669490E-1,-1.205982566E0,7.178468108E-1,9.293723106E0
6.926511160E-1,-9.236295223E-1,7.896314859E-1,9.403793335E0
7.023358550E-1,-9.571290612E-1,9.954141974E-1,9.686145782E0
7.120211160E-1,-1.110269666E0,1.081555843E0,9.676574707E0
7.217060120E-1,-1.019342422E0,1.258624673E0,9.815358162E0
7.313902300E-1,-9.092726111E-1,1.502692580E0,1.061934662E1
7.410755430E-1,-1.067198873E0,1.186840057E0,1.049013424E1
7.507609600E-1,-1.603191137E0,1.043270707E0,9.887143135E0
7.604462200E-1,-1.636690736E0,9.906286001E-1,9.466006279E0
7.701310120E-1,-1.842473388E0,1.110269666E0,9.504291534E0
7.798153870E-1,-2.014756680E0,9.236295223E-1,9.317651749E0
7.895010120E-1,-1.780260086E0,1.105484009E0,1.000199890E1
7.991854910E-1,-1.450050473E0,1.679761529E0,9.939785004E0
8.088705950E-1,-1.416550994E0,2.067398787E0,9.695717812E0
8.185560640E-1,-1.076770186E0,2.455035925E0,9.480362892E0
8.282416370E-1,-1.378265858E0,3.038884640E0,9.571290970E0
8.379274180E-1,-1.808973908E0,3.412165165E0,9.461220741E0
8.476118450E-1,-2.258824587E0,3.493520975E0,8.968298912E0
8.572956990E-1,-2.550748825E0,3.565305710E0,8.810373306E0
8.669799700E-1,-2.785245657E0,3.584448338E0,8.542376518E0
8.766647620E-1,-3.024527788E0,3.584448338E0,8.475378036E0
8.863495010E-1,-3.062813044E0,3.483949661E0,8.499305725E0
8.960340330E-1,-3.043670416E0,3.072384357E0,8.054241180E0
9.057184080E-1,-3.096312523E0,3.172882795E0,7.465606689E0
9.154029390E-1,-3.187239647E0,3.613162279E0,7.154539585E0
9.250879390E-1,-3.273381472E0,3.957728624E0,7.240681171E0
9.347726260E-1,-3.421736479E0,3.704089403E0,8.269595146E0
9.444576260E-1,-3.493520975E0,3.029313564E0,9.164510727E0
9.541435120E-1,-3.579662561E0,2.699103832E0,9.016156197E0
9.638268450E-1,-3.809373617E0,2.517249346E0,9.265008926E0
9.735115330E-1,-3.833301783E0,2.196611166E0,8.968298912E0
9.831952830E-1,-3.838087559E0,2.067398787E0,8.461020470E0
9.928803350E-1,-4.067798615E0,1.612762451E0,8.097311974E0
1.002565699E0,-3.986442566E0,1.617548108E0,5.536991596E0
1.012250230E0,-4.125226021E0,1.986042738E0,5.264209747E0
1.021934918E0,-3.938585997E0,2.182254314E0,5.656632900E0
1.031620178E0,-3.680161238E0,2.421536446E0,6.604190350E0
1.041306168E0,-3.445664644E0,2.751745939E0,6.867401123E0
1.050991272E0,-3.278167009E0,3.062813044E0,7.211967468E0
1.060677418E0,-3.460021496E0,3.139383316E0,7.494320393E0
1.070362678E0,-4.852644444E0,2.196611166E0,7.776673794E0
1.080047418E0,-5.345565796E0,1.057627559E0,6.891329288E0
1.089733408E0,-5.345565796E0,1.698904037E0,6.900900364E0
1.099418251E0,-5.546562672E0,2.962314367E0,6.608976364E0
1.109102887E0,-5.790630817E0,3.393022537E0,6.302694798E0
1.118787939E0,-5.852844238E0,3.723232031E0,6.967899323E0
1.128472783E0,-5.809773445E0,3.991228104E0,8.307880402E0
1.138159710E0,-5.781059742E0,4.024727821E0,8.796015739E0
1.147845022E0,-5.814558983E0,4.340580463E0,8.528019905E0
1.157530335E0,-5.862415314E0,4.378865242E0,7.436892986E0
1.167215335E0,-6.005984783E0,3.651447296E0,6.427121639E0
1.176900595E0,-6.245266914E0,2.560320139E0,6.838686943E0
1.186584918E0,-6.436692715E0,3.000599623E0,7.508677483E0
1.196270699E0,-6.757331371E0,3.081955671E0,6.719046116E0
1.205955699E0,-7.111468792E0,2.746960402E0,6.058627129E0
1.215639241E0,-7.192824841E0,2.440679073E0,5.450850010E0
1.225324814E0,-7.010970116E0,2.249253273E0,5.675775528E0
1.235010230E0,-6.853044033E0,2.483749866E0,6.336194515E0
1.244695439E0,-7.039684296E0,3.081955671E0,6.848258495E0
1.254379605E0,-7.188039303E0,3.397808075E0,6.666403770E0
1.264065365E0,-7.255038261E0,3.125026464E0,6.278766632E0
1.273750261E0,-7.661818027E0,2.383251429E0,5.876772404E0
1.283435938E0,-7.714460373E0,2.311466694E0,6.340980053E0
1.293121719E0,-7.379465103E0,1.919043779E0,6.116054535E0
1.302806667E0,-7.154539585E0,1.641476393E0,5.139782906E0
1.312491407E0,-6.848258495E0,2.215753794E0,3.924229145E0
1.322177761E0,-6.675975323E0,2.550748825E0,4.163511276E0
1.331863126E0,-6.628118515E0,2.086541414E0,4.900500774E0
1.341548542E0,-6.881757736E0,2.158325911E0,5.656632900E0
1.351233282E0,-7.384250641E0,1.933400750E0,6.106483459E0
1.360919219E0,-7.838887215E0,1.201196909E0,5.809773445E0
1.370604376E0,-7.786244869E0,9.523434043E-1,5.723631859E0
1.380288646E0,-8.130811691E0,7.274180651E-1,5.230710506E0
1.389973907E0,-9.231510162E0,8.327022791E-1,5.479563713E0
1.399659584E0,-1.122712421E1,2.105684042E0,6.719046116E0
1.409343230E0,-1.240439224E1,2.378465652E0,6.273981094E0
1.419027605E0,-1.161476135E1,2.096112728E0,5.694917679E0
1.428714376E0,-9.643074989E0,6.939185858E-1,4.914857864E0
1.438399376E0,-8.437092781E0,-6.221339107E-1,2.976671457E0
1.448084636E0,-8.843872070E0,-2.584248483E-1,2.823530674E0
1.457769219E0,-8.949156761E0,-2.440679073E-1,3.885943890E0
1.467453073E0,-9.121439934E0,-6.699903607E-1,4.063013077E0
1.477137709E0,-9.068798065E0,-1.100698471E0,3.507878065E0
1.486823855E0,-8.724231720E0,-1.277767301E0,3.158525944E0
1.496508646E0,-8.255238533E0,-1.416550994E0,3.144168854E0
1.506193334E0,-7.814958572E0,-1.406979680E0,3.321237803E0
1.515878646E0,-7.690532207E0,-1.344766378E0,3.517449379E0
1.525565417E0,-7.762316704E0,-7.034898400E-1,4.125226021E0
1.535250834E0,-7.972885132E0,-4.881358147E-1,4.235296249E0
1.544935469E0,-8.250452042E0,-9.571290575E-3,3.512663603E0
1.554621094E0,-8.379665375E0,3.397808075E-1,3.818944931E0
1.564306251E0,-8.470592499E0,4.929214716E-1,4.273581028E0
1.573991667E0,-9.202795982E0,1.124626637E0,4.948357105E0
1.583677813E0,-9.236295700E0,4.642075896E-1,2.435893536E0
1.593363490E0,-1.093041420E1,1.220339537E0,1.014078236E1
1.603048490E0,-1.108833981E1,8.279166222E-1,7.312466145E0
1.612733855E0,-1.085384369E1,4.115654826E-1,4.972285271E0
1.622418855E0,-1.059541893E1,-7.992027402E-1,4.182653904E0
1.632104011E0,-1.047577763E1,-1.560120344E0,4.809573650E0
1.641790053E0,-1.034177971E1,-1.512263894E0,4.345366001E0
1.651474428E0,-1.052841949E1,-9.092726111E-1,2.761317253E0
1.661159792E0,-1.023649502E1,-5.790630579E-1,2.579462767E0
1.670844636E0,-9.609575272E0,-5.599204898E-1,3.220739365E0
1.680529480E0,-8.824729919E0,-6.221339107E-1,4.235296249E0
1.690214844E0,-8.599804878E0,-2.344966233E-1,4.589433670E0
1.699900469E0,-8.556734085E0,3.445664644E-1,4.565505505E0
1.709585573E0,-8.676374435E0,-3.684946895E-1,2.919243574E0
1.719270573E0,-8.422736168E0,2.536391914E-1,3.235096216E0
1.728955938E0,-8.762516975E0,0.000000000E0,3.809373617E0
1.738640105E0,-9.174081802E0,-9.092725813E-2,3.689732552E0
1.748325782E0,-9.437292099E0,2.871387079E-2,2.766103029E0
1.758013803E0,-9.509077072E0,-3.828516230E-2,2.019542217E0
1.767699428E0,-9.183652878E0,1.004985496E-1,1.942971945E0
1.777384532E0,-8.934800148E0,2.871387079E-2,1.483550072E0
1.787070105E0,-9.001798630E0,-3.732803464E-1,2.569891453E0
1.796755157E0,-9.188439369E0,-7.800601721E-1,3.067598581E0
1.806438594E0,-9.255437851E0,-1.081555843E0,3.598805189E0
1.816122865E0,-9.681360245E0,-6.987041831E-1,3.972085476E0
1.825806251E0,-9.734002113E0,-3.876372576E-1,4.173082829E0
1.835491094E0,-1.010728264E1,-6.508477330E-1,3.933800459E0
1.845176719E0,-1.017906761E1,-3.349951804E-1,3.029313564E0
1.854861563E0,-1.014078236E1,3.493520916E-1,2.311466694E0
1.864547709E0,-1.005464077E1,5.599204898E-1,2.560320139E0
1.874234740E0,-1.055713367E1,2.249253243E-1,2.512463808E0
1.883921042E0,-1.036092186E1,3.349951804E-1,2.373680115E0
1.893607084E0,-1.003549862E1,7.657032460E-2,2.383251429E0
1.903294428E0,-1.009771156E1,-3.541377485E-1,2.742174864E0
1.912981303E0,-9.992427826E0,-7.465606928E-1,2.660818815E0
1.922666511E0,-1.005942631E1,-1.560120344E0,3.067598581E0
1.932353178E0,-9.824930191E0,-1.804188251E0,3.900300980E0
1.942039271E0,-9.614361763E0,-1.536192179E0,4.034298897E0
1.951723855E0,-9.475577354E0,-1.148554921E0,3.086741209E0
1.961408334E0,-9.461220741E0,-5.168496966E-1,2.407179594E0
1.971094219E0,-9.202795982E0,7.657032460E-2,1.785045743E0
1.980779271E0,-9.121439934E0,4.259224236E-1,1.655833244E0
1.990464688E0,-9.207581520E0,4.546363056E-1,1.708475351E0
2.000149740E0,-9.566504478E0,3.158525825E-1,2.134397745E0
2.009835782E0,-9.772287369E0,-4.785645287E-3,2.230110645E0
2.019521511E0,-9.791430473E0,-3.876372576E-1,2.440679073E0
2.029206771E0,-9.437292099E0,-1.138983607E0,2.775674343E0
2.038891511E0,-8.886942863E0,-1.383051515E0,3.014956474E0
2.048576876E0,-8.417949677E0,-1.359123230E0,1.832902193E0
2.058261719E0,-8.202595711E0,-1.440479279E0,2.268395901E0
2.067946771E0,-8.102097511E0,-1.143769264E0,1.512263894E0
2.077631980E0,-8.073383331E0,-8.662018180E-1,1.651047587E0
2.087317969E0,-7.948956966E0,-8.135597110E-1,2.029113531E0
2.097003073E0,-2.078405762E1,7.968099594E0,1.177268744E0
2.106689271E0,-1.147119141E1,-2.201396823E-1,5.005784988E0
2.116375521E0,-1.017906761E1,-7.369893789E-1,3.215953588E0
2.126061198E0,-9.896714211E0,-6.077769399E-1,2.837887764E0
2.135747188E0,-1.001635551E1,-9.140582681E-1,2.426322222E0
2.145432292E0,-1.016471100E1,-6.652047038E-1,2.541177750E0
2.155117709E0,-9.767501831E0,-4.354937077E-1,2.498106956E0
2.164803178E0,-9.643074989E0,-3.637090325E-1,1.957328916E0
2.174488594E0,-9.590433121E0,-4.067798555E-1,2.191825628E0
2.184173542E0,-9.533005714E0,-5.886343718E-1,2.665604353E0
2.193856251E0,-9.724431038E0,-5.790630579E-1,2.273181438E0
2.203543178E0,-9.734002113E0,-5.216353536E-1,2.225325108E0
2.213229323E0,-9.671789169E0,-5.120640397E-1,2.129612207E0
2.222914740E0,-9.729216576E0,-5.312066078E-1,2.388036966E0
2.232600105E0,-9.724431038E0,-5.216353536E-1,2.019542217E0
2.242285782E0,-9.710074425E0,-5.168496966E-1,1.971685886E0
2.251971511E0,-9.662218094E0,-4.929214716E-1,2.143969059E0
2.261656719E0,-9.671789169E0,-5.072783828E-1,2.000399828E0
2.271341303E0,-9.705288887E0,-4.929214716E-1,1.746760488E0
2.281026771E0,-9.714859962E0,-4.785645306E-1,2.316252232E0
2.290712188E0,-9.710074425E0,-4.833501875E-1,2.694318295E0
2.300397084E0,-9.690931320E0,-4.929214716E-1,2.421536446E0
2.310082136E0,-9.714859962E0,-5.024927258E-1,2.062613010E0
2.319766355E0,-9.695717812E0,-4.977070987E-1,1.952543259E0
2.329450157E0,-9.734002113E0,-5.216353536E-1,1.631905079E0
2.339134323E0,-9.686145782E0,-4.881358147E-1,2.067398787E0
2.348818490E0,-9.710074425E0,-4.977070987E-1,2.129612207E0
2.358503855E0,-9.734002113E0,-4.977070987E-1,1.981257200E0
2.368188073E0,-9.954142570E0,-6.029912829E-1,1.923829436E0
2.377873959E0,-9.934999466E0,-5.934200287E-1,2.158325911E0
2.387558126E0,-9.657432556E0,-4.833501875E-1,3.498306751E0
2.397243438E0,-9.604789734E0,-3.876372576E-1,2.866601467E0
2.406929219E0,-9.667003632E0,-4.307080805E-1,2.153540373E0
2.416616459E0,-9.743574142E0,-4.929214716E-1,2.053041935E0
2.426301823E0,-9.638289452E0,-4.163511395E-1,2.005185366E0
2.435986042E0,-9.767501831E0,-4.689932466E-1,1.655833244E0
2.445673178E0,-9.954142570E0,-5.647061467E-1,1.239482164E0
2.455359844E0,-9.738788605E0,-5.742774606E-1,1.392622828E0
2.465045573E0,-9.571290970E0,-3.684946895E-1,2.277967215E0
2.474730938E0,-9.657432556E0,-5.312066078E-1,2.971885681E0
2.484417344E0,-9.762716293E0,-5.790630579E-1,2.790031195E0
2.494102813E0,-9.734002113E0,-5.694918036E-1,1.981257200E0
2.503789011E0,-9.647860527E0,-6.364908218E-1,1.622333765E0
2.513475886E0,-9.489934921E0,-7.034898400E-1,1.746760488E0
2.523162917E0,-9.451649666E0,-7.369893789E-1,1.914258122E0
2.532848282E0,-9.571290970E0,-7.417750359E-1,1.497906923E0
2.542535157E0,-9.475577354E0,-3.445664644E-1,1.354337573E0
2.552221407E0,-9.346364975E0,1.579262912E-1,1.909472466E0
2.561907084E0,-9.556933403E0,1.674975902E-1,2.330609322E0
2.571592448E0,-9.767501831E0,-7.657032460E-2,2.129612207E0
2.581276719E0,-9.815358162E0,-3.445664644E-1,2.033899307E0
2.590960313E0,-9.777072906E0,-5.216353536E-1,1.971685886E0
2.600646042E0,-9.643074989E0,-3.637090325E-1,1.737189293E0
2.610331823E0,-9.470791817E0,-3.302095234E-1,1.531406522E0
2.620016355E0,-9.542576790E0,-3.254238665E-1,1.205982566E0
2.629700938E0,-9.556933403E0,-3.206382394E-1,1.052842021E0
2.639386042E0,-9.853643417E0,9.571290575E-3,1.435693540E-2
2.649069480E0,-9.882357597E0,3.828516230E-2,-3.828516230E-2
2.658753594E0,-9.939785004E0,-8.135596663E-2,1.052841991E-1
2.668438334E0,-1.016471100E1,-7.178468257E-2,-1.483550072E-1
2.678123334E0,-9.973284721E0,-2.727817893E-1,5.742774606E-1
2.687809011E0,-9.925428391E0,-2.679961324E-1,1.296909928E0
2.697495573E0,-9.973284721E0,-1.004985496E-1,8.470591903E-1
2.707181355E0,-1.327538013E1,-2.225325108E0,3.938585997E0
2.716866459E0,-9.614361763E0,1.158126116E0,2.321038008E0
2.726551407E0,-9.891928673E0,7.609176040E-1,3.206382275E0
2.736238073E0,-9.834501266E0,6.987041831E-1,4.977070987E-1
2.745923698E0,-1.002114105E1,2.344966233E-1,2.153540403E-1
2.755608021E0,-9.978070259E0,-4.689932466E-1,7.800601721E-1
2.765293646E0,-1.000678444E1,-4.546363056E-1,-3.014956415E-1
2.774978907E0,-1.006899738E1,-5.694918036E-1,1.579262912E-1
2.784664376E0,-1.006899738E1,-5.790630579E-1,-8.327022791E-1
2.794348646E0,-1.000199890E1,-3.732803464E-1,3.589234054E-1
2.804034011E0,-1.014078236E1,-2.201396823E-1,-3.445664644E-1
2.813719115E0,-1.022213840E1,2.871387079E-2,7.752745152E-1
2.823403542E0,-1.007378292E1,4.307080805E-1,1.641476393E0
2.833089376E0,-9.810572624E0,6.508477330E-1,1.737189293E0
2.842776355E0,-9.877572060E0,8.039883971E-1,3.436093330E0
2.852462188E0,-9.145368576E0,8.805587292E-1,4.278367043E0
2.862147501E0,-9.848857880E0,-2.775674164E-1,1.722832322E0
2.871832709E0,-9.667003632E0,2.392822690E-2,3.206382394E-1
2.881517709E0,-9.690931320E0,6.221338734E-2,-3.349951804E-1
2.891202448E0,-1.042792130E1,1.914258115E-2,-8.566305041E-1
2.900887657E0,-9.853643417E0,3.349951655E-2,7.178468257E-2
2.910573386E0,-1.042792130E1,1.387837082E-1,-1.579262912E-1
2.920257917E0,-1.010728264E1,-4.785645381E-2,1.311266780E0
2.929943073E0,-9.963713646E0,1.674975902E-1,1.909472466E0
2.939628959E0,-9.958928108E0,6.221338734E-2,2.727817893E-1
2.949313542E0,-9.973284721E0,3.349951655E-2,-5.742774159E-2
2.959000990E0,-9.973284721E0,2.871387079E-2,-1.914258152E-1
2.968686615E0,-9.978070259E0,3.828516230E-2,-1.196411327E-1
2.978371251E0,-9.954142570E0,4.307080805E-2,6.699903309E-2
2.988057605E0,-9.958928108E0,8.135596663E-2,2.297109663E-1
2.997744792E0,-9.968499184E0,1.914258115E-2,-1.866401732E-1
3.007432344E0,-9.963713646E0,1.435693540E-2,-3.732803464E-1
3.017118907E0,-9.973284721E0,-4.785645287E-3,-4.881358147E-1
3.026806719E0,-9.958928108E0,1.052841991E-1,-6.508477330E-1
3.036492917E0,-9.978070259E0,9.571290575E-3,4.642075896E-1
3.046179688E0,-9.930213928E0,2.201396823E-1,2.967100143E0
3.055865678E0,-9.944570541E0,5.264209956E-2,5.982056856E-1
3.065551876E0,-9.963713646E0,6.699903309E-2,2.105683982E-1
3.075237240E0,-9.968499184E0,9.092725813E-2,9.092725813E-2
3.084922448E0,-9.958928108E0,1.435693540E-2,1.483550072E-1
3.094608073E0,-9.973284721E0,2.871387079E-2,1.579262912E-1
3.104293334E0,-9.973284721E0,3.828516230E-2,1.483550072E-1
3.113978282E0,-9.958928108E0,4.307080805E-2,2.153540403E-1
3.123663334E0,-9.997213364E0,1.387837082E-1,1.674975902E-1
3.133347813E0,-9.954142570E0,-4.307080805E-2,2.201396823E-1
3.143034323E0,-9.978070259E0,3.349951655E-2,1.722832322E-1
3.152719532E0,-9.968499184E0,5.264209956E-2,2.009970993E-1
3.162405782E0,-9.963713646E0,6.221338734E-2,1.531406492E-1
3.172092084E0,-9.978070259E0,7.657032460E-2,1.770688742E-1
3.181778542E0,-9.973284721E0,2.009970993E-1,1.339980662E-1
3.191465001E0,-9.992427826E0,1.483550072E-1,6.699903309E-2
3.201150834E0,-9.978070259E0,-1.052841991E-1,-6.221338734E-2
3.210836563E0,-9.963713646E0,-9.092725813E-2,1.196411327E-1
3.220522709E0,-9.891928673E0,1.052841991E-1,-4.211367965E-1
3.230210209E0,-1.002114105E1,-3.828516230E-2,1.531406492E-1
3.239897969E0,-9.963713646E0,6.221338734E-2,6.652047038E-1
3.249583021E0,-9.963713646E0,4.307080805E-2,1.770688742E-1
3.259269271E0,-9.978070259E0,2.871387079E-2,-1.100698411E-1
3.268955105E0,-9.968499184E0,2.871387079E-2,7.657032460E-2
3.278640053E0,-9.973284721E0,8.614161611E-2,7.417750359E-1
3.288325105E0,-9.958928108E0,6.699903309E-2,4.402793646E-1
3.298010209E0,-9.963713646E0,1.914258115E-2,-4.067798555E-1
3.307695157E0,-9.978070259E0,6.221338734E-2,4.689932466E-1
3.317380782E0,-9.968499184E0,6.221338734E-2,4.402793646E-1
3.327066771E0,-9.973284721E0,6.221338734E-2,1.531406492E-1
3.336753698E0,-9.973284721E0,5.742774159E-2,1.483550072E-1
3.346439792E0,-9.982855797E0,5.742774159E-2,1.579262912E-1
3.356125730E0,-9.973284721E0,5.742774159E-2,1.579262912E-1
3.365811615E0,-9.973284721E0,5.742774159E-2,6.221338734E-2
3.375496980E0,-9.954142570E0,4.785645381E-2,2.297109663E-1
3.385183646E0,-9.973284721E0,4.307080805E-2,1.627119333E-1
3.394871823E0,-9.968499184E0,5.264209956E-2,1.148554832E-1
3.404558803E0,-9.978070259E0,4.785645381E-2,1.483550072E-1
3.414244844E0,-9.968499184E0,5.742774159E-2,1.387837082E-1
3.423931928E0,-9.968499184E0,7.178468257E-2,1.579262912E-1
3.433618021E0,-9.968499184E0,5.742774159E-2,1.292124242E-1
3.443303803E0,-9.973284721E0,3.828516230E-2,1.052841991E-1
3.452991094E0,-9.987641335E0,2.871387079E-2,4.307080805E-2
3.462677969E0,-1.001635551E1,4.785645287E-3,-7.178468257E-2
3.472363646E0,-1.008335495E1,6.221338734E-2,-5.455635786E-1
3.482049584E0,-9.911071777E0,1.914258152E-1,2.871387303E-1
3.491735678E0,-9.815358162E0,1.914258115E-2,1.009771109E0
3.501421146E0,-9.973284721E0,2.871387079E-2,1.962114573E-1
3.511106459E0,-9.978070259E0,3.828516230E-2,1.483550072E-1
3.520791511E0,-9.973284721E0,6.221338734E-2,1.196411327E-1
3.530476407E0,-9.968499184E0,3.349951655E-2,1.339980662E-1
3.540161980E0,-9.982855797E0,3.828516230E-2,1.435693651E-1
3.549847969E0,-9.978070259E0,5.264209956E-2,1.244267747E-1
3.559534063E0,-9.968499184E0,3.349951655E-2,1.292124242E-1
3.569218855E0,-9.968499184E0,4.307080805E-2,1.483550072E-1
3.578904480E0,-9.968499184E0,4.307080805E-2,1.435693651E-1
3.588590730E0,-9.968499184E0,3.828516230E-2,1.387837082E-1
3.598275313E0,-9.963713646E0,4.785645381E-2,1.339980662E-1
3.607960834E0,-9.978070259E0,4.307080805E-2,1.387837082E-1
3.617646094E0,-9.973284721E0,4.307080805E-2,1.387837082E-1
3.627331094E0,-9.973284721E0,5.742774159E-2,1.579262912E-1
3.637016771E0,-9.973284721E0,3.349951655E-2,1.292124242E-1
3.646701876E0,-9.973284721E0,3.828516230E-2,1.052841991E-1
3.656387136E0,-9.968499184E0,4.307080805E-2,1.627119333E-1
3.666072657E0,-9.968499184E0,4.307080805E-2,1.866401732E-1
3.675757292E0,-9.973284721E0,3.349951655E-2,1.052841991E-1
3.685440417E0,-9.987641335E0,6.221338734E-2,1.579262912E-1
3.695123751E0,-9.958928108E0,4.785645381E-2,1.148554832E-1
3.704808490E0,-9.963713646E0,3.828516230E-2,7.657032460E-2
3.714494011E0,-9.973284721E0,4.307080805E-2,2.584248483E-1
3.724179896E0,-9.949356079E0,5.264209956E-2,7.178468257E-2
3.733865313E0,-9.978070259E0,5.264209956E-2,1.339980662E-1
3.743550730E0,-9.963713646E0,4.307080805E-2,9.571290761E-2
3.753236511E0,-9.968499184E0,3.828516230E-2,1.579262912E-1
3.762922188E0,-9.973284721E0,5.264209956E-2,1.148554832E-1
3.772605834E0,-9.978070259E0,4.307080805E-2,1.148554832E-1
3.782291563E0,-9.963713646E0,4.785645381E-2,1.339980662E-1
3.791977709E0,-9.978070259E0,3.828516230E-2,1.339980662E-1
3.801661876E0,-9.963713646E0,5.264209956E-2,1.435693651E-1
3.811345157E0,-9.968499184E0,3.828516230E-2,1.387837082E-1
3.821031251E0,-9.973284721E0,3.828516230E-2,1.339980662E-1
3.830715417E0,-9.954142570E0,4.307080805E-2,1.196411327E-1
3.840399896E0,-9.968499184E0,4.307080805E-2,1.339980662E-1
3.850083594E0,-9.973284721E0,4.307080805E-2,1.244267747E-1
3.859767865E0,-9.973284721E0,5.264209956E-2,1.531406492E-1
3.869454636E0,-9.978070259E0,5.742774159E-2,1.387837082E-1
3.879139688E0,-9.982855797E0,5.264209956E-2,1.148554832E-1
3.888824532E0,-9.954142570E0,4.307080805E-2,1.339980662E-1
3.898510313E0,-9.968499184E0,4.307080805E-2,1.244267747E-1
3.908195886E0,-9.973284721E0,3.349951655E-2,1.292124242E-1
3.917883021E0,-9.978070259E0,3.828516230E-2,1.339980662E-1
3.927570313E0,-9.954142570E0,3.828516230E-2,1.435693651E-1
3.937255573E0,-9.968499184E0,4.785645381E-2,1.292124242E-1
3.946940834E0,-9.982855797E0,4.307080805E-2,1.196411327E-1
3.956626042E0,-9.973284721E0,4.785645381E-2,1.244267747E-1
3.966310886E0,-9.982855797E0,1.914258115E-2,1.244267747E-1
3.975995678E0,-9.958928108E0,4.307080805E-2,1.339980662E-1
3.985679896E0,-9.978070259E0,4.307080805E-2,1.292124242E-1
3.995365053E0,-9.973284721E0,4.307080805E-2,1.339980662E-1
4.005050626E0,-9.968499184E0,5.742774159E-2,1.196411327E-1
4.014736251E0,-9.982855797E0,5.264209956E-2,1.435693651E-1
4.024421563E0,-9.958928108E0,4.307080805E-2,1.292124242E-1
4.034105938E0,-9.973284721E0,4.307080805E-2,1.100698411E-1
4.043791667E0,-9.968499184E0,4.785645381E-2,1.339980662E-1
4.053476719E0,-9.968499184E0,3.349951655E-2,1.435693651E-1
4.063162344E0,-9.982855797E0,4.785645381E-2,1.387837082E-1
4.072848490E0,-9.968499184E0,4.307080805E-2,1.100698411E-1
4.082532969E0,-9.978070259E0,3.828516230E-2,1.387837082E-1
4.092217136E0,-9.958928108E0,1.914258115E-2,1.339980662E-1
4.101901980E0,-9.954142570E0,2.871387079E-2,1.244267747E-1
4.111588386E0,-9.944570541E0,4.307080805E-2,1.292124242E-1
4.121272761E0,-9.958928108E0,5.264209956E-2,1.292124242E-1
4.130957344E0,-9.968499184E0,5.264209956E-2,1.339980662E-1
4.140642344E0,-9.978070259E0,4.785645381E-2,1.387837082E-1
4.150326511E0,-9.968499184E0,3.828516230E-2,1.292124242E-1
4.160012032E0,-9.963713646E0,4.785645381E-2,1.435693651E-1
4.169697605E0,-9.963713646E0,4.307080805E-2,1.292124242E-1
4.179383230E0,-9.978070259E0,3.349951655E-2,1.387837082E-1
4.189069115E0,-9.978070259E0,4.307080805E-2,1.292124242E-1
4.198754167E0,-9.954142570E0,3.828516230E-2,1.244267747E-1
4.208439896E0,-9.968499184E0,3.349951655E-2,1.339980662E-1
4.218125105E0,-9.968499184E0,4.307080805E-2,1.196411327E-1
4.227811094E0,-9.973284721E0,5.264209956E-2,1.292124242E-1
4.237495365E0,-9.968499184E0,5.264209956E-2,1.244267747E-1
4.247179271E0,-9.978070259E0,4.785645381E-2,1.387837082E-1
4.256864011E0,-9.963713646E0,3.828516230E-2,1.292124242E-1
4.266549271E0,-9.973284721E0,4.785645381E-2,1.435693651E-1
4.276234948E0,-9.968499184E0,4.785645381E-2,1.292124242E-1
4.285920782E0,-9.958928108E0,5.264209956E-2,1.244267747E-1
4.295604844E0,-9.963713646E0,3.349951655E-2,1.244267747E-1
4.305290886E0,-9.958928108E0,6.699903309E-2,1.244267747E-1
4.314976511E0,-9.963713646E0,5.742774159E-2,1.244267747E-1
4.324663073E0,-9.978070259E0,5.264209956E-2,1.292124242E-1
4.334348698E0,-9.968499184E0,4.307080805E-2,1.244267747E-1
4.344033230E0,-9.968499184E0,4.785645381E-2,1.244267747E-1
4.353718542E0,-9.968499184E0,5.264209956E-2,1.148554832E-1
4.363403386E0,-9.973284721E0,5.264209956E-2,1.244267747E-1
4.373088542E0,-9.968499184E0,4.785645381E-2,1.292124242E-1
4.382774271E0,-9.973284721E0,4.307080805E-2,1.292124242E-1
4.392460313E0,-9.978070259E0,3.349951655E-2,1.339980662E-1
4.402146719E0,-9.963713646E0,4.307080805E-2,1.244267747E-1
4.411831615E0,-9.968499184E0,4.785645381E-2,1.292124242E-1
4.421518646E0,-9.963713646E0,4.307080805E-2,1.339980662E-1
4.431204740E0,-9.963713646E0,3.349951655E-2,1.339980662E-1
4.440890417E0,-9.973284721E0,3.349951655E-2,1.387837082E-1
4.450575990E0,-9.968499184E0,2.871387079E-2,1.244267747E-1
4.460261251E0,-9.973284721E0,3.349951655E-2,1.196411327E-1
4.469946719E0,-9.954142570E0,3.828516230E-2,1.244267747E-1
4.479632865E0,-9.973284721E0,4.785645381E-2,1.339980662E-1
4.489319115E0,-9.992427826E0,4.307080805E-2,1.196411327E-1
4.499005313E0,-9.978070259E0,7.657032460E-2,1.196411327E-1
4.508692136E0,-9.978070259E0,3.828516230E-2,1.339980662E-1
4.518377761E0,-9.978070259E0,5.264209956E-2,1.292124242E-1
4.528063542E0,-9.968499184E0,3.828516230E-2,1.244267747E-1
4.537748594E0,-9.982855797E0,4.785645381E-2,1.531406492E-1
4.547434688E0,-9.963713646E0,3.349951655E-2,1.148554832E-1
4.557120105E0,-9.973284721E0,4.307080805E-2,1.292124242E-1
4.566806876E0,-9.963713646E0,3.828516230E-2,1.196411327E-1
4.576493230E0,-9.963713646E0,4.307080805E-2,1.196411327E-1
4.586178334E0,-9.978070259E0,3.349951655E-2,1.244267747E-1
4.595863698E0,-9.978070259E0,5.742774159E-2,1.292124242E-1
4.605550261E0,-9.963713646E0,4.785645381E-2,1.244267747E-1
4.615236355E0,-9.954142570E0,4.785645381E-2,1.196411327E-1
4.624921928E0,-9.973284721E0,4.307080805E-2,1.196411327E-1
4.634608438E0,-9.978070259E0,5.264209956E-2,1.196411327E-1
4.644293803E0,-9.968499184E0,4.785645381E-2,1.244267747E-1
4.653980573E0,-9.954142570E0,4.785645381E-2,1.148554832E-1
4.663668594E0,-9.973284721E0,3.349951655E-2,1.339980662E-1
4.673356042E0,-9.973284721E0,6.221338734E-2,1.244267747E-1
4.683042240E0,-9.978070259E0,4.307080805E-2,1.292124242E-1
4.692728959E0,-9.982855797E0,4.785645381E-2,1.244267747E-1
4.702414740E0,-9.978070259E0,5.742774159E-2,1.196411327E-1
4.712100365E0,-9.987641335E0,4.785645381E-2,1.244267747E-1
4.721786303E0,-9.978070259E0,2.871387079E-2,1.244267747E-1
4.731473542E0,-9.992427826E0,4.307080805E-2,1.292124242E-1
4.741160209E0,-9.973284721E0,3.828516230E-2,1.244267747E-1
4.750845834E0,-9.958928108E0,4.785645381E-2,1.244267747E-1
4.760533334E0,-9.968499184E0,4.785645381E-2,1.244267747E-1
4.770218542E0,-9.982855797E0,4.785645381E-2,1.292124242E-1
4.779903438E0,-9.963713646E0,3.828516230E-2,1.196411327E-1
4.789590313E0,-9.954142570E0,4.307080805E-2,1.339980662E-1
4.799276667E0,-9.973284721E0,4.307080805E-2,1.148554832E-1
4.808962136E0,-9.968499184E0,2.392822690E-2,1.435693651E-1
4.818646667E0,-9.982855797E0,3.828516230E-2,1.244267747E-1
4.828332709E0,-9.982855797E0,4.785645381E-2,1.196411327E-1
4.838018438E0,-9.968499184E0,3.828516230E-2,1.196411327E-1
4.847703021E0,-9.968499184E0,3.828516230E-2,1.196411327E-1
4.857388959E0,-9.968499184E0,4.785645381E-2,1.244267747E-1
4.867074844E0,-9.978070259E0,4.307080805E-2,1.292124242E-1
4.876759792E0,-9.968499184E0,4.307080805E-2,1.244267747E-1
4.886443959E0,-9.978070259E0,5.742774159E-2,1.292124242E-1
4.896129167E0,-9.968499184E0,4.307080805E-2,1.244267747E-1
4.905814167E0,-9.968499184E0,4.307080805E-2,1.244267747E-1
4.915499428E0,-9.973284721E0,4.307080805E-2,1.196411327E-1
4.925185626E0,-9.963713646E0,2.392822690E-2,1.292124242E-1
4.934873021E0,-9.968499184E0,4.785645381E-2,1.100698411E-1
4.944559480E0,-9.963713646E0,4.785645381E-2,1.292124242E-1
4.954245053E0,-9.978070259E0,4.307080805E-2,1.148554832E-1
4.963932240E0,-9.968499184E0,4.307080805E-2,1.196411327E-1
4.973617501E0,-9.968499184E0,4.785645381E-2,1.244267747E-1
4.983303178E0,-9.973284721E0,4.785645381E-2,1.244267747E-1
4.992989376E0,-9.968499184E0,4.307080805E-2,1.244267747E-1
5.002677084E0,-9.968499184E0,4.785645381E-2,1.244267747E-1
5.012363126E0,-9.968499184E0,4.785645381E-2,1.244267747E-1
5.022049948E0,-9.958928108E0,5.264209956E-2,1.244267747E-1
5.031735938E0,-9.968499184E0,5.742774159E-2,1.339980662E-1
5.041422448E0,-9.978070259E0,4.785645381E-2,1.100698411E-1
5.051107969E0,-9.973284721E0,3.828516230E-2,1.292124242E-1
5.060794480E0,-9.958928108E0,4.785645381E-2,1.244267747E-1
5.070481511E0,-9.963713646E0,3.828516230E-2,1.244267747E-1
5.080168282E0,-9.973284721E0,3.349951655E-2,1.148554832E-1
5.089853438E0,-9.973284721E0,4.307080805E-2,1.292124242E-1
5.099541303E0,-9.963713646E0,4.785645381E-2,1.292124242E-1
5.109227240E0,-9.982855797E0,5.264209956E-2,1.196411327E-1
5.118913594E0,-9.958928108E0,3.349951655E-2,1.292124242E-1
5.128598751E0,-9.982855797E0,4.785645381E-2,1.196411327E-1
5.138284584E0,-9.973284721E0,7.178468257E-2,1.244267747E-1
5.147971615E0,-9.963713646E0,2.871387079E-2,1.292124242E-1
5.157655886E0,-9.973284721E0,4.307080805E-2,1.292124242E-1
5.167342240E0,-9.963713646E0,5.264209956E-2,1.196411327E-1
5.177028594E0,-9.982855797E0,4.785645381E-2,1.292124242E-1
5.186714584E0,-9.973284721E0,3.828516230E-2,1.244267747E-1
5.196400834E0,-9.968499184E0,5.264209956E-2,1.292124242E-1
5.206086198E0,-9.958928108E0,4.785645381E-2,1.292124242E-1
5.215771563E0,-9.973284721E0,3.349951655E-2,1.244267747E-1
5.225458073E0,-9.963713646E0,4.307080805E-2,1.100698411E-1
5.235145105E0,-9.963713646E0,3.828516230E-2,1.196411327E-1
5.244830365E0,-9.963713646E0,2.871387079E-2,1.292124242E-1
5.254517969E0,-9.958928108E0,4.307080805E-2,1.292124242E-1
5.264204428E0,-9.968499184E0,4.785645381E-2,1.196411327E-1
5.273892292E0,-9.978070259E0,4.307080805E-2,1.292124242E-1
5.283579063E0,-9.973284721E0,5.742774159E-2,1.244267747E-1
5.293266303E0,-9.973284721E0,5.742774159E-2,1.339980662E-1
5.302951667E0,-9.954142570E0,4.785645381E-2,1.292124242E-1
5.312638698E0,-9.973284721E0,3.828516230E-2,1.196411327E-1
5.322324844E0,-9.963713646E0,3.828516230E-2,1.100698411E-1
5.332010417E0,-9.963713646E0,4.785645381E-2,1.196411327E-1
5.341696980E0,-9.968499184E0,2.392822690E-2,1.339980662E-1
5.351382917E0,-9.968499184E0,2.871387079E-2,1.387837082E-1
5.361069011E0,-9.968499184E0,3.349951655E-2,1.244267747E-1
5.370754323E0,-9.982855797E0,4.785645381E-2,1.100698411E-1
5.380441771E0,-9.973284721E0,4.785645381E-2,1.148554832E-1
5.390126355E0,-9.973284721E0,6.699903309E-2,1.244267747E-1
5.399812136E0,-9.973284721E0,5.264209956E-2,1.196411327E-1
5.409499167E0,-9.958928108E0,3.828516230E-2,1.292124242E-1
5.419185261E0,-9.963713646E0,4.307080805E-2,1.148554832E-1
5.428871042E0,-9.973284721E0,4.307080805E-2,1.196411327E-1
5.438557240E0,-9.978070259E0,2.871387079E-2,1.196411327E-1
5.448244011E0,-9.978070259E0,3.349951655E-2,1.292124242E-1
5.457930001E0,-9.963713646E0,4.307080805E-2,1.244267747E-1
5.467617188E0,-9.968499184E0,4.307080805E-2,1.244267747E-1
5.477302917E0,-9.954142570E0,3.828516230E-2,1.244267747E-1
5.486988646E0,-9.973284721E0,5.264209956E-2,1.339980662E-1
5.496675626E0,-9.973284721E0,5.264209956E-2,1.196411327E-1
5.506362605E0,-9.958928108E0,4.307080805E-2,1.148554832E-1
5.516048698E0,-9.978070259E0,4.785645381E-2,1.292124242E-1
5.525735157E0,-9.968499184E0,3.349951655E-2,1.292124242E-1
5.535423646E0,-9.968499184E0,4.307080805E-2,1.244267747E-1
5.545110573E0,-9.987641335E0,3.828516230E-2,1.292124242E-1
5.554796980E0,-9.968499184E0,3.828516230E-2,1.339980662E-1
5.564484688E0,-9.954142570E0,3.349951655E-2,1.292124242E-1
5.574170730E0,-9.958928108E0,4.307080805E-2,1.292124242E-1
5.583857969E0,-9.978070259E0,5.264209956E-2,1.244267747E-1
5.593545417E0,-9.973284721E0,5.264209956E-2,1.339980662E-1
5.603233907E0,-9.973284721E0,4.785645381E-2,1.244267747E-1
5.612921459E0,-9.968499184E0,4.785645381E-2,1.100698411E-1
5.622608855E0,-9.978070259E0,4.307080805E-2,1.196411327E-1
5.632296042E0,-9.982855797E0,4.307080805E-2,1.196411327E-1
5.641982813E0,-9.963713646E0,4.307080805E-2,1.196411327E-1
5.651670053E0,-9.978070259E0,3.349951655E-2,1.100698411E-1
5.661357136E0,-9.963713646E0,4.785645381E-2,1.339980662E-1
5.671043646E0,-9.963713646E0,4.785645381E-2,1.196411327E-1
5.680729948E0,-9.968499184E0,5.264209956E-2,1.244267747E-1
5.690417396E0,-9.954142570E0,4.307080805E-2,1.100698411E-1
5.700105001E0,-9.973284721E0,3.828516230E-2,1.339980662E-1
5.709792292E0,-9.963713646E0,4.307080805E-2,1.292124242E-1
5.719480469E0,-9.978070259E0,5.742774159E-2,1.339980662E-1
5.729167240E0,-9.973284721E0,4.307080805E-2,1.244267747E-1
5.738854063E0,-9.978070259E0,5.742774159E-2,1.148554832E-1
5.748542553E0,-9.968499184E0,5.264209956E-2,1.244267747E-1
5.758228646E0,-9.978070259E0,1.914258115E-2,1.196411327E-1
5.767915417E0,-9.973284721E0,3.828516230E-2,1.339980662E-1
5.777601198E0,-9.968499184E0,5.264209956E-2,1.196411327E-1
5.787288803E0,-9.978070259E0,4.307080805E-2,1.339980662E-1
5.796975834E0,-9.963713646E0,6.221338734E-2,1.244267747E-1
5.806661459E0,-9.954142570E0,4.307080805E-2,1.196411327E-1
5.816348126E0,-9.973284721E0,3.828516230E-2,1.196411327E-1
5.826035209E0,-9.968499184E0,4.785645381E-2,1.196411327E-1
5.835721563E0,-9.973284721E0,4.785645381E-2,1.244267747E-1
5.845408751E0,-9.968499184E0,5.742774159E-2,1.292124242E-1
5.855095417E0,-9.963713646E0,4.785645381E-2,1.100698411E-1
5.864781198E0,-9.963713646E0,4.307080805E-2,1.339980662E-1
5.874469063E0,-9.968499184E0,3.828516230E-2,1.339980662E-1
5.884157084E0,-9.963713646E0,3.349951655E-2,1.292124242E-1
5.893843126E0,-9.963713646E0,4.785645381E-2,1.196411327E-1
5.903530626E0,-9.968499184E0,4.307080805E-2,1.100698411E-1
5.913217084E0,-9.978070259E0,4.785645381E-2,1.292124242E-1
5.922904428E0,-9.963713646E0,5.264209956E-2,1.148554832E-1
5.932591511E0,-9.968499184E0,3.349951655E-2,1.100698411E-1
5.942279896E0,-9.963713646E0,3.828516230E-2,1.244267747E-1
5.951968126E0,-9.968499184E0,5.264209956E-2,1.244267747E-1
5.961654896E0,-9.973284721E0,5.264209956E-2,1.100698411E-1
5.971342501E0,-9.978070259E0,4.785645381E-2,1.244267747E-1
5.981028959E0,-9.973284721E0,3.349951655E-2,1.244267747E-1
5.990714376E0,-9.978070259E0,4.785645381E-2,1.339980662E-1
6.000402501E0,-9.958928108E0,4.307080805E-2,1.196411327E-1
6.010090157E0,-9.963713646E0,4.785645381E-2,1.148554832E-1
6.019777865E0,-9.968499184E0,4.785645381E-2,1.292124242E-1
6.029466459E0,-9.954142570E0,4.307080805E-2,1.196411327E-1
6.039155626E0,-9.963713646E0,4.785645381E-2,1.244267747E-1
6.048842709E0,-9.973284721E0,4.785645381E-2,1.387837082E-1
6.058529428E0,-9.963713646E0,3.349951655E-2,1.196411327E-1
6.068216042E0,-9.978070259E0,5.264209956E-2,1.196411327E-1
6.077904792E0,-9.973284721E0,4.785645381E-2,1.196411327E-1
6.087592865E0,-9.973284721E0,5.264209956E-2,1.387837082E-1
6.097279480E0,-9.968499184E0,3.828516230E-2,1.196411327E-1
6.106966980E0,-9.978070259E0,2.871387079E-2,1.244267747E-1
6.116655053E0,-9.968499184E0,5.264209956E-2,1.148554832E-1
6.126341615E0,-9.968499184E0,5.264209956E-2,1.196411327E-1
6.136030834E0,-9.982855797E0,4.785645381E-2,1.292124242E-1
6.145719167E0,-9.958928108E0,2.871387079E-2,1.292124242E-1
6.155406355E0,-9.958928108E0,3.828516230E-2,1.148554832E-1
6.165092292E0,-9.978070259E0,3.828516230E-2,1.196411327E-1
6.174778386E0,-9.978070259E0,3.349951655E-2,1.244267747E-1
6.184466094E0,-9.968499184E0,4.785645381E-2,1.196411327E-1
6.194151876E0,-9.968499184E0,4.307080805E-2,1.244267747E-1
6.203839323E0,-9.987641335E0,7.657032460E-2,1.244267747E-1
6.213525573E0,-9.968499184E0,3.828516230E-2,1.100698411E-1
6.223210990E0,-9.968499184E0,4.307080805E-2,1.148554832E-1
6.232897396E0,-9.968499184E0,4.785645381E-2,1.292124242E-1
6.242583646E0,-9.963713646E0,2.871387079E-2,1.100698411E-1
6.252269844E0,-9.954142570E0,5.264209956E-2,1.196411327E-1
6.261957136E0,-9.982855797E0,5.264209956E-2,1.148554832E-1
6.271642084E0,-9.963713646E0,5.264209956E-2,1.148554832E-1
6.281328230E0,-9.973284721E0,3.828516230E-2,1.292124242E-1
6.291014896E0,-9.968499184E0,4.785645381E-2,1.148554832E-1
6.300702084E0,-9.973284721E0,4.307080805E-2,1.244267747E-1
6.310388542E0,-9.982855797E0,3.349951655E-2,1.148554832E-1
6.320075782E0,-9.973284721E0,2.871387079E-2,1.148554832E-1
6.329763855E0,-9.982855797E0,4.785645381E-2,1.196411327E-1
6.339450782E0,-9.968499184E0,4.307080805E-2,1.148554832E-1
6.349137448E0,-9.982855797E0,4.785645381E-2,1.244267747E-1
6.358824271E0,-9.958928108E0,4.307080805E-2,1.292124242E-1
6.368510626E0,-9.978070259E0,4.307080805E-2,1.196411327E-1
6.378196094E0,-9.958928108E0,3.828516230E-2,1.100698411E-1
6.387881251E0,-9.982855797E0,3.349951655E-2,1.196411327E-1
6.397565678E0,-9.963713646E0,2.871387079E-2,1.196411327E-1
6.407251198E0,-9.968499184E0,3.349951655E-2,1.148554832E-1
6.416937709E0,-9.973284721E0,4.785645381E-2,1.244267747E-1
6.426623178E0,-9.973284721E0,5.742774159E-2,1.148554832E-1
6.436309011E0,-9.973284721E0,4.307080805E-2,1.148554832E-1
6.445994948E0,-9.963713646E0,4.785645381E-2,1.196411327E-1
6.455681094E0,-9.944570541E0,4.307080805E-2,1.148554832E-1
6.465367813E0,-9.944570541E0,4.307080805E-2,1.148554832E-1
6.475055053E0,-9.958928108E0,3.828516230E-2,1.196411327E-1
6.484740209E0,-9.973284721E0,5.264209956E-2,1.244267747E-1
6.494425834E0,-9.973284721E0,2.871387079E-2,1.244267747E-1
6.504112136E0,-9.973284721E0,5.264209956E-2,1.244267747E-1
6.513798073E0,-9.973284721E0,3.828516230E-2,1.148554832E-1
6.523485157E0,-9.978070259E0,5.742774159E-2,1.100698411E-1
6.533170886E0,-9.963713646E0,4.307080805E-2,1.339980662E-1
6.542857501E0,-9.968499184E0,3.828516230E-2,1.100698411E-1
6.552542813E0,-9.973284721E0,4.307080805E-2,1.148554832E-1
6.562228803E0,-9.973284721E0,5.264209956E-2,1.100698411E-1
6.571914428E0,-9.958928108E0,3.349951655E-2,1.148554832E-1
6.581600157E0,-9.968499184E0,4.785645381E-2,1.244267747E-1
6.591286094E0,-9.958928108E0,4.785645381E-2,1.196411327E-1
6.600973230E0,-9.958928108E0,5.264209956E-2,1.196411327E-1
6.610659584E0,-9.978070259E0,4.307080805E-2,1.244267747E-1
6.620347605E0,-9.954142570E0,3.828516230E-2,1.244267747E-1
6.630034271E0,-9.968499184E0,3.828516230E-2,1.196411327E-1
6.639721303E0,-9.958928108E0,4.785645381E-2,1.244267747E-1
6.649406407E0,-9.958928108E0,4.307080805E-2,1.292124242E-1
6.659092709E0,-9.963713646E0,2.392822690E-2,1.244267747E-1
6.668777969E0,-9.963713646E0,3.828516230E-2,1.148554832E-1
6.678463855E0,-9.963713646E0,5.742774159E-2,1.196411327E-1
6.688149480E0,-9.968499184E0,5.742774159E-2,1.196411327E-1
6.697834740E0,-9.963713646E0,6.221338734E-2,1.244267747E-1
6.707521667E0,-9.958928108E0,3.828516230E-2,1.244267747E-1
6.717207448E0,-9.963713646E0,5.264209956E-2,1.196411327E-1
6.726892605E0,-9.954142570E0,3.828516230E-2,1.244267747E-1
6.736578021E0,-9.958928108E0,3.828516230E-2,1.196411327E-1
6.746265834E0,-9.973284721E0,5.264209956E-2,1.244267747E-1
6.755952917E0,-9.968499184E0,3.828516230E-2,1.148554832E-1
6.765638698E0,-9.973284721E0,3.349951655E-2,1.244267747E-1
6.775324688E0,-9.963713646E0,4.307080805E-2,1.148554832E-1
6.785010313E0,-9.958928108E0,3.828516230E-2,1.100698411E-1
6.794695626E0,-9.963713646E0,3.828516230E-2,1.100698411E-1
6.804381251E0,-9.973284721E0,4.307080805E-2,1.148554832E-1
6.814065469E0,-9.968499184E0,4.307080805E-2,1.148554832E-1
6.823748646E0,-9.973284721E0,4.785645381E-2,1.148554832E-1
6.833433230E0,-9.954142570E0,2.871387079E-2,1.196411327E-1
6.843116719E0,-9.982855797E0,4.785645381E-2,1.292124242E-1
6.852801928E0,-9.978070259E0,5.264209956E-2,1.292124242E-1
6.862486719E0,-9.973284721E0,6.221338734E-2,1.196411327E-1
6.872170938E0,-9.963713646E0,2.392822690E-2,1.244267747E-1
6.881856146E0,-9.982855797E0,2.871387079E-2,1.196411327E-1
6.891540730E0,-9.973284721E0,4.785645381E-2,1.244267747E-1
6.901226094E0,-9.968499184E0,4.785645381E-2,1.196411327E-1
6.910911459E0,-9.978070259E0,3.828516230E-2,1.244267747E-1
6.920596146E0,-9.978070259E0,3.349951655E-2,1.148554832E-1
6.930281459E0,-9.968499184E0,3.828516230E-2,1.196411327E-1
6.939967188E0,-9.958928108E0,4.785645381E-2,1.004985496E-1
6.949652553E0,-9.973284721E0,5.264209956E-2,1.292124242E-1
6.959337813E0,-9.968499184E0,6.221338734E-2,1.052841991E-1
6.969023386E0,-9.968499184E0,4.785645381E-2,1.100698411E-1
6.978708646E0,-9.968499184E0,3.828516230E-2,1.244267747E-1
6.988393959E0,-9.978070259E0,5.264209956E-2,1.196411327E-1
6.998079948E0,-9.973284721E0,3.349951655E-2,1.148554832E-1
7.007766198E0,-9.973284721E0,3.828516230E-2,1.244267747E-1
7.017454219E0,-9.982855797E0,2.392822690E-2,1.196411327E-1
7.027139792E0,-9.987641335E0,5.742774159E-2,1.100698411E-1
7.036825573E0,-9.968499184E0,5.264209956E-2,1.244267747E-1
7.046511511E0,-9.968499184E0,5.742774159E-2,1.100698411E-1
7.056197501E0,-9.958928108E0,4.785645381E-2,1.244267747E-1
7.065884532E0,-9.973284721E0,3.828516230E-2,1.244267747E-1
7.075570938E0,-9.968499184E0,3.349951655E-2,1.196411327E-1
7.085258907E0,-9.968499184E0,4.307080805E-2,1.148554832E-1
7.094947188E0,-9.973284721E0,5.264209956E-2,1.100698411E-1
7.104633646E0,-9.968499184E0,4.785645381E-2,1.196411327E-1
7.114319532E0,-9.982855797E0,4.307080805E-2,1.052841991E-1
7.124004844E0,-9.958928108E0,4.307080805E-2,1.148554832E-1
7.133691094E0,-9.968499184E0,4.785645381E-2,1.148554832E-1
7.143377396E0,-9.958928108E0,5.742774159E-2,1.148554832E-1
7.153062657E0,-9.963713646E0,5.742774159E-2,1.148554832E-1
7.162748542E0,-9.963713646E0,4.785645381E-2,1.196411327E-1
7.172433751E0,-9.968499184E0,2.392822690E-2,1.148554832E-1
7.182119896E0,-9.963713646E0,5.264209956E-2,1.148554832E-1
7.191805990E0,-9.954142570E0,3.349951655E-2,1.148554832E-1
7.201492657E0,-9.968499184E0,3.828516230E-2,1.196411327E-1
7.211178855E0,-9.958928108E0,3.828516230E-2,1.148554832E-1
7.220865053E0,-9.968499184E0,3.828516230E-2,1.100698411E-1
7.230551198E0,-9.978070259E0,4.307080805E-2,1.196411327E-1
7.240238230E0,-9.973284721E0,3.828516230E-2,1.148554832E-1
7.249924219E0,-9.963713646E0,2.871387079E-2,1.244267747E-1
7.259609792E0,-9.982855797E0,3.828516230E-2,1.148554832E-1
7.269294219E0,-9.992427826E0,4.785645381E-2,1.100698411E-1
7.278979688E0,-9.968499184E0,3.828516230E-2,1.196411327E-1
7.288665938E0,-9.982855797E0,4.307080805E-2,1.196411327E-1
7.298351615E0,-9.982855797E0,4.785645381E-2,1.148554832E-1
7.308037136E0,-9.973284721E0,3.828516230E-2,1.100698411E-1
7.317721667E0,-9.958928108E0,4.307080805E-2,1.148554832E-1
7.327407553E0,-9.963713646E0,4.307080805E-2,1.196411327E-1
7.337093178E0,-9.978070259E0,3.828516230E-2,1.196411327E-1
7.346778490E0,-9.973284721E0,4.785645381E-2,1.052841991E-1
7.356463646E0,-9.978070259E0,4.307080805E-2,1.292124242E-1
7.366149688E0,-9.954142570E0,4.307080805E-2,1.244267747E-1
7.375836563E0,-9.978070259E0,2.871387079E-2,1.244267747E-1
7.385523178E0,-9.973284721E0,4.307080805E-2,1.100698411E-1
7.395209584E0,-9.973284721E0,4.785645381E-2,1.148554832E-1
7.404896146E0,-9.958928108E0,4.307080805E-2,1.052841991E-1
7.414584532E0,-9.963713646E0,5.742774159E-2,1.292124242E-1
7.424271303E0,-9.982855797E0,3.828516230E-2,1.196411327E-1
7.433958021E0,-9.982855797E0,4.307080805E-2,1.292124242E-1
7.443644948E0,-9.978070259E0,4.307080805E-2,1.244267747E-1
7.453330678E0,-9.982855797E0,5.264209956E-2,1.339980662E-1
7.463016928E0,-9.973284721E0,5.264209956E-2,1.196411327E-1
7.472701667E0,-9.973284721E0,4.307080805E-2,1.148554832E-1
7.482386615E0,-9.958928108E0,2.871387079E-2,1.196411327E-1
7.492071823E0,-9.973284721E0,2.871387079E-2,1.292124242E-1
7.501755990E0,-9.963713646E0,3.828516230E-2,1.292124242E-1
7.511441980E0,-9.968499184E0,4.785645381E-2,1.148554832E-1
7.521128959E0,-9.973284721E0,4.307080805E-2,1.100698411E-1
7.530815521E0,-9.973284721E0,4.785645381E-2,1.148554832E-1
7.540500365E0,-9.963713646E0,4.307080805E-2,1.148554832E-1
7.550186355E0,-9.978070259E0,3.828516230E-2,1.196411327E-1
7.559872136E0,-9.963713646E0,3.349951655E-2,1.148554832E-1
7.569558126E0,-9.968499184E0,5.264209956E-2,1.196411327E-1
7.579243803E0,-9.982855797E0,6.221338734E-2,1.196411327E-1
7.588928803E0,-9.982855797E0,4.785645381E-2,1.196411327E-1
7.598614948E0,-9.958928108E0,5.742774159E-2,1.100698411E-1
7.608300209E0,-9.978070259E0,4.785645381E-2,1.148554832E-1
7.617985365E0,-9.978070259E0,5.264209956E-2,1.196411327E-1
7.627672553E0,-9.968499184E0,3.828516230E-2,1.148554832E-1
7.637358698E0,-9.982855797E0,4.307080805E-2,1.339980662E-1
7.647044584E0,-9.954142570E0,5.264209956E-2,1.196411327E-1
7.656730053E0,-9.968499184E0,4.785645381E-2,1.052841991E-1
7.666415313E0,-9.978070259E0,4.785645381E-2,1.052841991E-1
7.676100365E0,-9.978070259E0,4.307080805E-2,1.292124242E-1
7.685786251E0,-9.963713646E0,4.785645381E-2,1.100698411E-1
7.695472501E0,-9.973284721E0,3.828516230E-2,1.196411327E-1
7.705157136E0,-9.973284721E0,3.349951655E-2,1.196411327E-1
7.714843542E0,-9.963713646E0,4.785645381E-2,1.292124242E-1
7.724528907E0,-9.968499184E0,4.307080805E-2,1.244267747E-1
7.734213282E0,-9.968499184E0,4.307080805E-2,1.196411327E-1
7.743900469E0,-9.978070259E0,3.828516230E-2,1.196411327E-1
7.753586042E0,-9.982855797E0,5.742774159E-2,1.100698411E-1
7.763271094E0,-9.968499184E0,4.785645381E-2,1.244267747E-1
7.772957501E0,-9.978070259E0,5.264209956E-2,1.244267747E-1
7.782642709E0,-9.968499184E0,3.828516230E-2,1.292124242E-1
7.792329063E0,-9.949356079E0,5.264209956E-2,1.052841991E-1
7.802014115E0,-9.978070259E0,4.307080805E-2,1.244267747E-1
7.811700365E0,-9.982855797E0,4.307080805E-2,1.196411327E-1
7.821387813E0,-9.963713646E0,3.828516230E-2,1.100698411E-1
7.831074480E0,-9.982855797E0,4.785645381E-2,1.196411327E-1
7.840760938E0,-9.963713646E0,4.307080805E-2,1.244267747E-1
7.850447240E0,-9.973284721E0,5.264209956E-2,1.004985496E-1
7.860132605E0,-9.987641335E0,4.785645381E-2,1.196411327E-1
7.869817136E0,-9.968499184E0,2.392822690E-2,1.292124242E-1
7.879501563E0,-9.982855797E0,3.828516230E-2,1.052841991E-1
7.889185730E0,-9.954142570E0,3.349951655E-2,1.100698411E-1
7.898870678E0,-9.958928108E0,4.307080805E-2,1.244267747E-1
7.908556928E0,-9.973284721E0,4.785645381E-2,1.148554832E-1
7.918243855E0,-9.978070259E0,3.828516230E-2,1.052841991E-1
7.927929636E0,-9.963713646E0,2.871387079E-2,1.292124242E-1
7.937615261E0,-9.963713646E0,4.785645381E-2,1.339980662E-1
7.947301615E0,-9.958928108E0,4.307080805E-2,1.244267747E-1
7.956986563E0,-9.963713646E0,4.307080805E-2,1.196411327E-1
7.966672553E0,-9.978070259E0,3.828516230E-2,1.148554832E-1
7.976358646E0,-9.973284721E0,4.307080805E-2,1.244267747E-1
7.986044584E0,-9.973284721E0,4.307080805E-2,1.196411327E-1
7.995728438E0,-9.954142570E0,5.264209956E-2,1.244267747E-1
8.005414115E0,-9.973284721E0,5.742774159E-2,1.244267747E-1
8.015100678E0,-9.982855797E0,6.221338734E-2,1.148554832E-1
8.024786407E0,-9.968499184E0,4.307080805E-2,1.292124242E-1
8.034471823E0,-9.958928108E0,2.871387079E-2,1.292124242E-1
8.044158542E0,-9.973284721E0,4.307080805E-2,1.148554832E-1
8.053844167E0,-9.973284721E0,5.264209956E-2,1.292124242E-1
8.063528855E0,-9.982855797E0,2.392822690E-2,1.148554832E-1
8.073213855E0,-9.968499184E0,4.307080805E-2,1.148554832E-1
8.082900261E0,-9.978070259E0,3.349951655E-2,1.148554832E-1
8.092585886E0,-9.982855797E0,6.221338734E-2,1.196411327E-1
8.102271042E0,-9.958928108E0,3.828516230E-2,1.196411327E-1
8.111957396E0,-9.982855797E0,5.264209956E-2,1.148554832E-1
8.121642136E0,-9.968499184E0,2.871387079E-2,1.196411327E-1
8.131328594E0,-9.963713646E0,3.828516230E-2,1.100698411E-1
8.141014115E0,-9.973284721E0,5.264209956E-2,1.196411327E-1
8.150700730E0,-9.958928108E0,3.349951655E-2,1.196411327E-1
8.160387344E0,-9.982855797E0,4.785645381E-2,1.196411327E-1
8.170073073E0,-9.978070259E0,3.828516230E-2,1.196411327E-1
8.179760626E0,-9.978070259E0,3.349951655E-2,1.148554832E-1
8.189447292E0,-9.978070259E0,4.307080805E-2,1.148554832E-1
8.199132344E0,-9.973284721E0,3.349951655E-2,1.244267747E-1
8.208818021E0,-9.968499184E0,4.307080805E-2,1.148554832E-1
8.218503751E0,-9.963713646E0,6.221338734E-2,1.100698411E-1
8.228189011E0,-9.963713646E0,4.785645381E-2,1.100698411E-1
8.237875782E0,-9.978070259E0,4.307080805E-2,1.100698411E-1
8.247562813E0,-9.973284721E0,3.349951655E-2,1.244267747E-1
8.257249271E0,-9.968499184E0,4.307080805E-2,1.052841991E-1
8.266933959E0,-9.958928108E0,4.785645381E-2,1.244267747E-1
8.276620313E0,-9.968499184E0,2.871387079E-2,1.244267747E-1
8.286306667E0,-9.978070259E0,3.828516230E-2,1.148554832E-1
8.295993490E0,-9.968499184E0,4.785645381E-2,1.148554832E-1
8.305679271E0,-9.978070259E0,4.307080805E-2,1.196411327E-1
8.315365782E0,-9.963713646E0,4.307080805E-2,1.052841991E-1
8.325052501E0,-9.987641335E0,5.742774159E-2,1.292124242E-1
8.334738282E0,-9.978070259E0,4.307080805E-2,1.148554832E-1
8.344424063E0,-9.978070259E0,3.349951655E-2,1.148554832E-1
8.354110469E0,-9.982855797E0,4.785645381E-2,1.292124242E-1
8.363796407E0,-9.973284721E0,3.828516230E-2,1.148554832E-1
8.373481719E0,-9.968499184E0,4.307080805E-2,1.148554832E-1
8.383167032E0,-9.954142570E0,4.307080805E-2,1.196411327E-1
8.392853438E0,-9.958928108E0,4.307080805E-2,1.148554832E-1
8.402539376E0,-9.973284721E0,3.828516230E-2,1.196411327E-1
8.412224480E0,-9.973284721E0,4.785645381E-2,1.244267747E-1
8.421909115E0,-9.978070259E0,6.221338734E-2,1.244267747E-1
8.431594844E0,-9.963713646E0,5.742774159E-2,1.148554832E-1
8.441279948E0,-9.968499184E0,4.307080805E-2,1.196411327E-1
8.450967865E0,-9.978070259E0,4.307080805E-2,1.148554832E-1
8.460654480E0,-9.968499184E0,3.349951655E-2,1.052841991E-1
8.470340105E0,-9.973284721E0,3.828516230E-2,1.292124242E-1
8.480026667E0,-9.978070259E0,4.307080805E-2,1.196411327E-1
8.489712605E0,-9.954142570E0,3.828516230E-2,1.244267747E-1
8.499397813E0,-9.963713646E0,4.307080805E-2,1.052841991E-1
8.509085417E0,-9.963713646E0,4.307080805E-2,1.292124242E-1
8.518771511E0,-9.958928108E0,4.307080805E-2,1.244267747E-1
8.528457761E0,-9.968499184E0,4.307080805E-2,1.100698411E-1
8.538143438E0,-9.973284721E0,4.785645381E-2,1.148554832E-1
8.547829063E0,-9.978070259E0,4.307080805E-2,1.100698411E-1
8.557514167E0,-9.954142570E0,5.742774159E-2,1.244267747E-1
8.567199896E0,-9.992427826E0,4.785645381E-2,1.244267747E-1
8.576887136E0,-9.968499184E0,5.264209956E-2,1.148554832E-1
8.586573751E0,-9.963713646E0,7.178468257E-2,1.244267747E-1
8.596259428E0,-9.982855797E0,6.221338734E-2,1.148554832E-1
8.605944792E0,-9.973284721E0,4.785645381E-2,1.148554832E-1
8.615631042E0,-9.982855797E0,4.785645381E-2,1.148554832E-1
8.625316771E0,-9.973284721E0,4.785645381E-2,1.052841991E-1
8.635002709E0,-9.958928108E0,2.871387079E-2,1.148554832E-1
8.644691303E0,-9.963713646E0,4.785645381E-2,1.244267747E-1
8.654376823E0,-9.968499184E0,5.264209956E-2,1.100698411E-1
8.664062344E0,-9.954142570E0,5.264209956E-2,1.148554832E-1
8.673748230E0,-9.982855797E0,4.307080805E-2,1.244267747E-1
8.683434740E0,-9.982855797E0,5.264209956E-2,1.148554832E-1
8.693121094E0,-9.978070259E0,3.349951655E-2,1.196411327E-1
8.702808126E0,-9.973284721E0,4.785645381E-2,1.196411327E-1
8.712494896E0,-9.968499184E0,3.828516230E-2,1.100698411E-1
8.722180313E0,-9.982855797E0,5.742774159E-2,1.148554832E-1
8.731865209E0,-9.963713646E0,5.264209956E-2,1.196411327E-1
8.741549688E0,-9.973284721E0,6.221338734E-2,1.196411327E-1
8.751234323E0,-9.973284721E0,6.221338734E-2,1.196411327E-1
8.760921146E0,-9.968499184E0,4.307080805E-2,1.244267747E-1
8.770607813E0,-9.973284721E0,4.785645381E-2,1.196411327E-1
8.780294584E0,-9.978070259E0,2.392822690E-2,1.196411327E-1
8.789979896E0,-9.968499184E0,4.785645381E-2,1.196411327E-1
8.799665730E0,-9.973284721E0,4.307080805E-2,1.196411327E-1
8.809352084E0,-9.978070259E0,4.785645381E-2,1.196411327E-1
8.819037188E0,-9.973284721E0,4.307080805E-2,1.244267747E-1
8.828722553E0,-9.963713646E0,3.349951655E-2,1.292124242E-1
8.838406615E0,-9.978070259E0,4.307080805E-2,1.196411327E-1
8.848094323E0,-9.973284721E0,5.264209956E-2,1.196411327E-1
8.857782084E0,-9.963713646E0,5.264209956E-2,1.196411327E-1
8.867467136E0,-9.973284721E0,4.307080805E-2,1.244267747E-1
8.877151928E0,-9.978070259E0,4.307080805E-2,1.196411327E-1
8.886838126E0,-9.978070259E0,2.392822690E-2,1.196411327E-1
8.896524584E0,-9.987641335E0,4.785645381E-2,1.100698411E-1
8.906210521E0,-9.968499184E0,3.349951655E-2,1.244267747E-1
8.915895001E0,-9.963713646E0,5.264209956E-2,1.148554832E-1
8.925580157E0,-9.973284721E0,3.349951655E-2,1.196411327E-1
8.935264740E0,-9.968499184E0,3.349951655E-2,1.244267747E-1
8.944950157E0,-9.973284721E0,4.307080805E-2,1.292124242E-1
8.954634271E0,-9.978070259E0,5.264209956E-2,1.196411327E-1
8.964319480E0,-9.978070259E0,4.307080805E-2,1.196411327E-1
8.974004896E0,-9.968499184E0,3.828516230E-2,1.244267747E-1
8.983691459E0,-9.963713646E0,3.828516230E-2,1.196411327E-1
8.993376198E0,-9.973284721E0,4.785645381E-2,1.100698411E-1
9.003061407E0,-9.958928108E0,3.828516230E-2,1.244267747E-1
9.012748230E0,-9.982855797E0,4.785645381E-2,1.196411327E-1
9.022434584E0,-9.978070259E0,4.307080805E-2,1.196411327E-1
9.032119896E0,-9.982855797E0,5.742774159E-2,1.196411327E-1
9.041804584E0,-9.978070259E0,6.221338734E-2,1.244267747E-1
9.051488907E0,-9.958928108E0,4.785645381E-2,1.244267747E-1
9.061174063E0,-9.973284721E0,4.785645381E-2,1.196411327E-1
9.070859584E0,-9.973284721E0,4.785645381E-2,1.148554832E-1
9.080544115E0,-9.963713646E0,4.785645381E-2,1.196411327E-1
9.090230261E0,-9.973284721E0,2.871387079E-2,1.148554832E-1
9.099916719E0,-9.978070259E0,4.307080805E-2,1.196411327E-1
9.109601771E0,-9.963713646E0,3.349951655E-2,1.244267747E-1
9.119286407E0,-9.968499184E0,2.871387079E-2,1.148554832E-1
9.128971303E0,-9.944570541E0,4.785645381E-2,1.148554832E-1
9.138659323E0,-9.968499184E0,5.264209956E-2,1.196411327E-1
9.148345730E0,-9.963713646E0,4.307080805E-2,1.196411327E-1
9.158030573E0,-9.954142570E0,4.785645381E-2,1.292124242E-1
9.167716407E0,-9.968499184E0,4.307080805E-2,1.244267747E-1
9.177401459E0,-9.958928108E0,4.307080805E-2,1.148554832E-1
9.187087605E0,-9.963713646E0,3.828516230E-2,1.052841991E-1
9.196772292E0,-9.968499184E0,3.828516230E-2,1.244267747E-1
9.206457240E0,-9.973284721E0,4.307080805E-2,1.148554832E-1
9.216143230E0,-9.968499184E0,3.828516230E-2,1.100698411E-1
9.225829584E0,-9.968499184E0,3.828516230E-2,1.244267747E-1
9.235516303E0,-9.978070259E0,5.264209956E-2,1.148554832E-1
9.245201459E0,-9.978070259E0,4.785645381E-2,1.148554832E-1
9.254885886E0,-9.963713646E0,4.785645381E-2,1.244267747E-1
9.264571928E0,-9.982855797E0,4.785645381E-2,1.196411327E-1
9.274259063E0,-9.973284721E0,6.221338734E-2,1.148554832E-1
9.283945053E0,-9.978070259E0,4.785645381E-2,1.244267747E-1
9.293632136E0,-9.968499184E0,4.307080805E-2,1.196411327E-1
9.303317865E0,-9.978070259E0,4.785645381E-2,1.196411327E-1
9.313003126E0,-9.978070259E0,5.264209956E-2,1.148554832E-1
9.322689948E0,-9.982855797E0,4.307080805E-2,1.100698411E-1
9.332374844E0,-9.982855797E0,4.307080805E-2,1.196411327E-1
9.342060469E0,-9.973284721E0,3.828516230E-2,1.196411327E-1
9.351747136E0,-9.968499184E0,4.307080805E-2,1.100698411E-1
9.361433438E0,-9.963713646E0,5.264209956E-2,1.100698411E-1
9.371118594E0,-9.963713646E0,6.221338734E-2,1.148554832E-1
9.380803751E0,-9.963713646E0,3.828516230E-2,1.196411327E-1
9.390489896E0,-9.954142570E0,5.742774159E-2,1.244267747E-1
9.400175730E0,-9.963713646E0,4.307080805E-2,1.100698411E-1
9.409861980E0,-9.978070259E0,3.349951655E-2,1.196411327E-1
9.419550261E0,-9.968499184E0,5.742774159E-2,1.196411327E-1
9.429238178E0,-9.958928108E0,4.785645381E-2,1.196411327E-1
9.438924323E0,-9.968499184E0,4.307080805E-2,1.244267747E-1
9.448611042E0,-9.973284721E0,3.828516230E-2,1.100698411E-1
9.458297240E0,-9.968499184E0,2.871387079E-2,1.196411327E-1
9.467983230E0,-9.958928108E0,5.264209956E-2,1.292124242E-1
9.477669219E0,-9.973284721E0,4.307080805E-2,1.196411327E-1
9.487354323E0,-9.973284721E0,5.264209956E-2,1.148554832E-1
9.497040313E0,-9.973284721E0,1.914258115E-2,1.052841991E-1
9.506725001E0,-9.968499184E0,5.742774159E-2,1.052841991E-1
9.516410938E0,-9.973284721E0,3.349951655E-2,1.196411327E-1
9.526097813E0,-9.968499184E0,5.264209956E-2,1.244267747E-1
9.535783907E0,-9.963713646E0,3.828516230E-2,1.148554832E-1
9.545469271E0,-9.968499184E0,4.307080805E-2,1.196411327E-1
9.555155834E0,-9.958928108E0,3.828516230E-2,1.196411327E-1
9.564843073E0,-9.968499184E0,2.871387079E-2,1.196411327E-1
9.574528594E0,-9.987641335E0,5.264209956E-2,1.148554832E-1
9.584214584E0,-9.968499184E0,5.264209956E-2,1.052841991E-1
9.593899688E0,-9.978070259E0,3.349951655E-2,1.292124242E-1
9.603586303E0,-9.958928108E0,3.349951655E-2,1.100698411E-1
9.613272605E0,-9.987641335E0,4.785645381E-2,1.100698411E-1
9.622958178E0,-9.973284721E0,3.349951655E-2,1.244267747E-1
9.632644115E0,-9.978070259E0,5.742774159E-2,1.148554832E-1
9.642330626E0,-9.987641335E0,4.307080805E-2,1.148554832E-1
9.652017761E0,-9.978070259E0,4.307080805E-2,1.148554832E-1
9.661704948E0,-9.973284721E0,2.871387079E-2,1.148554832E-1
9.671390573E0,-9.973284721E0,3.828516230E-2,1.244267747E-1
9.681076303E0,-9.958928108E0,4.307080805E-2,1.244267747E-1
9.690762813E0,-9.978070259E0,5.742774159E-2,1.244267747E-1
9.700447709E0,-9.968499184E0,4.785645381E-2,1.148554832E-1
9.710134167E0,-9.973284721E0,3.828516230E-2,1.196411327E-1
9.719820782E0,-9.978070259E0,4.307080805E-2,1.148554832E-1
9.729506563E0,-9.982855797E0,4.307080805E-2,1.100698411E-1
9.739193386E0,-9.958928108E0,6.221338734E-2,1.196411327E-1
9.748878646E0,-9.963713646E0,5.264209956E-2,1.292124242E-1
9.758564740E0,-9.982855797E0,4.307080805E-2,1.004985496E-1
9.768250261E0,-9.973284721E0,3.828516230E-2,1.100698411E-1
9.777935782E0,-9.982855797E0,4.307080805E-2,1.148554832E-1
9.787621823E0,-9.968499184E0,5.742774159E-2,1.196411327E-1
9.797308386E0,-9.987641335E0,4.785645381E-2,1.148554832E-1
9.806995365E0,-9.978070259E0,4.307080805E-2,1.196411327E-1
9.816680469E0,-9.978070259E0,4.785645381E-2,1.244267747E-1
9.826367344E0,-9.954142570E0,4.307080805E-2,1.100698411E-1
9.836054688E0,-9.963713646E0,4.307080805E-2,1.148554832E-1
9.845740521E0,-9.973284721E0,6.221338734E-2,1.100698411E-1
9.855425678E0,-9.978070259E0,3.828516230E-2,1.196411327E-1
9.865112292E0,-9.968499184E0,4.785645381E-2,1.100698411E-1
9.874798855E0,-9.968499184E0,4.785645381E-2,1.244267747E-1
9.884483698E0,-9.963713646E0,4.307080805E-2,1.100698411E-1
9.894170990E0,-9.973284721E0,5.742774159E-2,1.196411327E-1
9.903856198E0,-9.968499184E0,2.871387079E-2,1.196411327E-1
9.913542813E0,-9.973284721E0,5.264209956E-2,1.196411327E-1
9.923229323E0,-9.963713646E0,3.828516230E-2,1.196411327E-1
9.932916251E0,-9.968499184E0,5.264209956E-2,1.292124242E-1
9.942603073E0,-9.958928108E0,4.785645381E-2,1.196411327E-1
9.952289063E0,-9.968499184E0,4.307080805E-2,1.148554832E-1
9.961974271E0,-9.963713646E0,4.307080805E-2,1.148554832E-1
9.971660157E0,-9.968499184E0,3.349951655E-2,1.052841991E-1
9.981344323E0,-9.973284721E0,5.264209956E-2,1.244267747E-1
9.991030261E0,-9.958928108E0,6.221338734E-2,1.292124242E-1
1.000071604E1,-9.968499184E0,4.307080805E-2,1.196411327E-1
1.001040094E1,-9.963713646E0,5.264209956E-2,1.148554832E-1
1.002008625E1,-9.958928108E0,4.785645381E-2,1.100698411E-1
1.002977214E1,-9.968499184E0,4.307080805E-2,1.196411327E-1
1.003945734E1,-9.958928108E0,4.785645381E-2,1.244267747E-1
1.004914323E1,-9.978070259E0,5.264209956E-2,1.100698411E-1
1.005882844E1,-9.973284721E0,4.307080805E-2,1.100698411E-1
1.006851453E1,-9.973284721E0,4.307080805E-2,1.052841991E-1
1.007819891E1,-9.968499184E0,4.785645381E-2,1.148554832E-1
1.008788412E1,-9.978070259E0,4.307080805E-2,1.148554832E-1
1.009757104E1,-9.963713646E0,3.828516230E-2,1.148554832E-1
1.010725677E1,-9.978070259E0,5.264209956E-2,1.100698411E-1
1.011694422E1,-9.968499184E0,4.785645381E-2,1.148554832E-1
1.012663177E1,-9.968499184E0,5.264209956E-2,1.196411327E-1
1.013631792E1,-9.963713646E0,4.307080805E-2,1.100698411E-1
1.014600427E1,-9.973284721E0,4.785645381E-2,1.292124242E-1
1.015569052E1,-9.973284721E0,3.828516230E-2,1.196411327E-1
1.016537641E1,-9.973284721E0,4.307080805E-2,1.196411327E-1
1.017506193E1,-9.973284721E0,4.785645381E-2,1.052841991E-1
1.018474609E1,-9.978070259E0,3.828516230E-2,1.196411327E-1
1.019443229E1,-9.968499184E0,3.828516230E-2,1.196411327E-1
1.020411771E1,-9.968499184E0,3.828516230E-2,1.148554832E-1
1.021380344E1,-9.968499184E0,5.264209956E-2,1.148554832E-1
1.022348776E1,-9.968499184E0,2.871387079E-2,1.148554832E-1
1.023317354E1,-9.973284721E0,3.828516230E-2,1.196411327E-1
1.024285953E1,-9.968499184E0,3.828516230E-2,1.148554832E-1
1.025254396E1,-9.973284721E0,3.828516230E-2,1.244267747E-1
1.026222844E1,-9.973284721E0,5.264209956E-2,1.292124242E-1
1.027191406E1,-9.968499184E0,3.828516230E-2,1.148554832E-1
1.028160115E1,-9.963713646E0,5.742774159E-2,1.244267747E-1
1.029128703E1,-9.982855797E0,4.307080805E-2,1.244267747E-1
1.030097297E1,-9.973284721E0,3.349951655E-2,1.196411327E-1
1.031065802E1,-9.968499184E0,3.828516230E-2,1.100698411E-1
1.032034208E1,-9.973284721E0,4.307080805E-2,1.292124242E-1
1.033002708E1,-9.978070259E0,3.828516230E-2,1.292124242E-1
1.033971109E1,-9.978070259E0,3.828516230E-2,1.100698411E-1
1.034939516E1,-9.963713646E0,4.785645381E-2,1.148554832E-1
1.035908000E1,-9.973284721E0,3.828516230E-2,1.100698411E-1
1.036876417E1,-9.968499184E0,4.785645381E-2,1.100698411E-1
1.037844896E1,-9.958928108E0,3.828516230E-2,1.244267747E-1
1.038813406E1,-9.968499184E0,4.307080805E-2,1.148554832E-1
1.039781969E1,-9.968499184E0,4.785645381E-2,1.052841991E-1
1.040750417E1,-9.968499184E0,3.349951655E-2,1.100698411E-1
1.041719136E1,-9.973284721E0,2.871387079E-2,1.148554832E-1
1.042687750E1,-9.973284721E0,4.785645381E-2,1.148554832E-1
1.043656276E1,-9.978070259E0,2.871387079E-2,1.196411327E-1
1.044624719E1,-9.978070259E0,4.307080805E-2,1.148554832E-1
1.045593281E1,-9.963713646E0,4.785645381E-2,1.052841991E-1
1.046561880E1,-9.978070259E0,3.349951655E-2,1.292124242E-1
1.047530495E1,-9.973284721E0,3.828516230E-2,1.196411327E-1
1.048499063E1,-9.973284721E0,4.307080805E-2,1.196411327E-1
1.049467536E1,-9.978070259E0,4.785645381E-2,1.339980662E-1
1.050436177E1,-9.963713646E0,5.264209956E-2,1.100698411E-1
1.051404760E1,-9.973284721E0,4.307080805E-2,1.244267747E-1
1.052373261E1,-9.958928108E0,4.785645381E-2,1.148554832E-1
1.053341844E1,-9.968499184E0,3.349951655E-2,1.100698411E-1
1.054310573E1,-9.982855797E0,4.785645381E-2,1.052841991E-1
1.055279172E1,-9.978070259E0,6.221338734E-2,1.148554832E-1
1.056247708E1,-9.973284721E0,3.349951655E-2,1.100698411E-1
1.057216245E1,-9.978070259E0,3.828516230E-2,1.244267747E-1
1.058184859E1,-9.968499184E0,4.785645381E-2,1.196411327E-1
1.059153469E1,-9.963713646E0,3.828516230E-2,1.148554832E-1
1.060121990E1,-9.973284721E0,5.264209956E-2,1.052841991E-1
1.061090542E1,-9.968499184E0,3.828516230E-2,1.292124242E-1
1.062059031E1,-9.968499184E0,3.828516230E-2,1.292124242E-1
1.063027818E1,-9.973284721E0,5.742774159E-2,1.292124242E-1
1.063996542E1,-9.978070259E0,4.785645381E-2,1.196411327E-1
1.064965182E1,-9.978070259E0,3.349951655E-2,1.148554832E-1
1.065933599E1,-9.973284721E0,4.307080805E-2,1.148554832E-1
1.066902073E1,-9.968499184E0,3.349951655E-2,1.100698411E-1
1.067870792E1,-9.987641335E0,5.264209956E-2,1.196411327E-1
1.068839323E1,-9.973284721E0,3.349951655E-2,1.244267747E-1
1.069807875E1,-9.963713646E0,3.828516230E-2,1.052841991E-1
1.070776516E1,-9.978070259E0,3.828516230E-2,1.148554832E-1
1.071745219E1,-9.963713646E0,3.349951655E-2,1.196411327E-1
1.072713823E1,-9.973284721E0,4.785645381E-2,1.244267747E-1
1.073682307E1,-9.973284721E0,3.828516230E-2,1.244267747E-1
1.074650896E1,-9.963713646E0,2.871387079E-2,1.100698411E-1
1.075619495E1,-9.963713646E0,5.264209956E-2,1.148554832E-1
1.076588109E1,-9.968499184E0,3.349951655E-2,1.100698411E-1
1.077556802E1,-9.978070259E0,4.307080805E-2,1.004985496E-1
1.078525406E1,-9.987641335E0,3.349951655E-2,1.148554832E-1
1.079494057E1,-9.963713646E0,4.307080805E-2,1.100698411E-1
1.080462594E1,-9.978070259E0,4.307080805E-2,1.100698411E-1
1.081431099E1,-9.973284721E0,4.307080805E-2,1.100698411E-1
1.082399620E1,-9.973284721E0,3.828516230E-2,1.292124242E-1
1.083368172E1,-9.987641335E0,4.307080805E-2,1.196411327E-1
1.084336453E1,-9.982855797E0,4.307080805E-2,1.196411327E-1
1.085305026E1,-9.982855797E0,4.307080805E-2,1.196411327E-1
1.086273578E1,-9.963713646E0,3.828516230E-2,1.196411327E-1
1.087242219E1,-9.968499184E0,5.742774159E-2,1.292124242E-1
1.088210964E1,-9.958928108E0,3.828516230E-2,1.100698411E-1
1.089179740E1,-9.978070259E0,4.785645381E-2,1.196411327E-1
1.090148318E1,-9.958928108E0,3.349951655E-2,1.148554832E-1
1.091116917E1,-9.968499184E0,4.785645381E-2,1.244267747E-1
1.092085500E1,-9.982855797E0,4.307080805E-2,1.196411327E-1
1.093054125E1,-9.963713646E0,4.307080805E-2,1.100698411E-1
1.094022708E1,-9.973284721E0,3.828516230E-2,1.148554832E-1
1.094991359E1,-9.968499184E0,3.828516230E-2,1.100698411E-1
1.095959964E1,-9.973284721E0,3.349951655E-2,1.148554832E-1
1.096928349E1,-9.968499184E0,5.742774159E-2,1.148554832E-1
1.097896917E1,-9.968499184E0,4.785645381E-2,1.196411327E-1
1.098865578E1,-9.963713646E0,4.785645381E-2,1.148554832E-1
1.099834099E1,-9.968499184E0,4.785645381E-2,1.244267747E-1
1.100802854E1,-9.987641335E0,3.349951655E-2,1.196411327E-1
1.101771542E1,-9.973284721E0,3.828516230E-2,1.004985496E-1
1.102740063E1,-9.978070259E0,3.349951655E-2,1.148554832E-1
1.103708625E1,-9.963713646E0,4.785645381E-2,1.196411327E-1
1.104677401E1,-9.973284721E0,3.828516230E-2,1.148554832E-1
1.105646057E1,-9.978070259E0,4.307080805E-2,1.148554832E-1
1.106614662E1,-9.973284721E0,4.307080805E-2,1.100698411E-1
1.107583344E1,-9.978070259E0,4.785645381E-2,1.148554832E-1
1.108551839E1,-9.968499184E0,3.828516230E-2,1.148554832E-1
1.109520469E1,-9.982855797E0,3.828516230E-2,1.052841991E-1
1.110488823E1,-9.968499184E0,3.349951655E-2,1.100698411E-1
1.111457219E1,-9.963713646E0,2.871387079E-2,1.100698411E-1
1.112425755E1,-9.978070259E0,4.785645381E-2,1.004985496E-1
1.113394271E1,-9.963713646E0,4.785645381E-2,1.052841991E-1
1.114362708E1,-9.973284721E0,5.264209956E-2,1.148554832E-1
1.115331234E1,-9.973284721E0,4.785645381E-2,1.052841991E-1
1.116299688E1,-9.973284721E0,4.307080805E-2,1.196411327E-1
1.117268313E1,-9.973284721E0,4.307080805E-2,1.196411327E-1
1.118236745E1,-9.973284721E0,3.828516230E-2,1.244267747E-1
1.119205359E1,-9.968499184E0,3.349951655E-2,1.244267747E-1
1.120173912E1,-9.968499184E0,4.307080805E-2,1.100698411E-1
1.121142573E1,-9.973284721E0,4.785645381E-2,1.148554832E-1
1.122111031E1,-9.982855797E0,2.871387079E-2,1.052841991E-1
1.123079662E1,-9.973284721E0,4.307080805E-2,1.244267747E-1
1.124048203E1,-9.973284721E0,3.828516230E-2,1.100698411E-1
1.125016750E1,-9.963713646E0,3.349951655E-2,1.244267747E-1
1.125985234E1,-9.982855797E0,4.307080805E-2,1.052841991E-1
1.126953854E1,-9.982855797E0,4.307080805E-2,1.244267747E-1
1.127922328E1,-9.963713646E0,4.785645381E-2,1.100698411E-1
1.128891021E1,-9.963713646E0,3.349951655E-2,1.100698411E-1
1.129859688E1,-9.973284721E0,3.828516230E-2,1.100698411E-1
1.130828328E1,-9.973284721E0,5.264209956E-2,1.196411327E-1
1.131796990E1,-9.973284721E0,3.349951655E-2,1.100698411E-1
1.132765771E1,-9.954142570E0,5.742774159E-2,1.148554832E-1
1.133734229E1,-9.973284721E0,3.828516230E-2,1.196411327E-1
1.134702990E1,-9.968499184E0,3.828516230E-2,1.100698411E-1
1.135671531E1,-9.963713646E0,3.349951655E-2,1.148554832E-1
1.136640052E1,-9.963713646E0,4.307080805E-2,1.052841991E-1
1.137608505E1,-9.992427826E0,4.307080805E-2,1.196411327E-1
1.138577136E1,-9.982855797E0,4.307080805E-2,1.100698411E-1
1.139545792E1,-9.982855797E0,4.307080805E-2,1.100698411E-1
1.140514417E1,-9.973284721E0,2.392822690E-2,1.100698411E-1
1.141483031E1,-9.973284721E0,3.828516230E-2,1.244267747E-1
1.142451662E1,-9.978070259E0,2.392822690E-2,1.100698411E-1
1.143420162E1,-9.973284721E0,3.349951655E-2,1.100698411E-1
1.144388818E1,-9.978070259E0,3.828516230E-2,1.196411327E-1
1.145357401E1,-9.973284721E0,2.871387079E-2,1.244267747E-1
1.146325990E1,-9.978070259E0,4.785645381E-2,1.100698411E-1
1.147294609E1,-9.973284721E0,3.828516230E-2,1.100698411E-1
1.148263177E1,-9.973284721E0,5.264209956E-2,1.148554832E-1
1.149231766E1,-9.978070259E0,4.307080805E-2,1.100698411E-1
1.150200307E1,-9.992427826E0,2.392822690E-2,1.052841991E-1
1.151168818E1,-9.978070259E0,3.828516230E-2,1.052841991E-1
1.152137339E1,-9.968499184E0,3.349951655E-2,1.148554832E-1
1.153105979E1,-9.963713646E0,3.828516230E-2,1.196411327E-1
1.154074620E1,-9.973284721E0,6.221338734E-2,1.004985496E-1
1.155043146E1,-9.968499184E0,3.828516230E-2,1.100698411E-1
1.156011693E1,-9.968499184E0,3.349951655E-2,1.196411327E-1
1.156980261E1,-9.978070259E0,5.264209956E-2,1.100698411E-1
1.157948901E1,-9.963713646E0,4.785645381E-2,1.148554832E-1
1.158917443E1,-9.978070259E0,6.221338734E-2,1.196411327E-1
1.159885870E1,-9.968499184E0,3.349951655E-2,1.100698411E-1
1.160854391E1,-9.978070259E0,3.349951655E-2,1.052841991E-1
1.161823010E1,-9.978070259E0,1.914258115E-2,1.148554832E-1
1.162791484E1,-9.973284721E0,2.392822690E-2,1.148554832E-1
1.163759880E1,-9.992427826E0,3.349951655E-2,1.052841991E-1
1.164728339E1,-9.982855797E0,5.742774159E-2,1.196411327E-1
1.165696844E1,-9.973284721E0,6.699903309E-2,1.244267747E-1
1.166665297E1,-9.982855797E0,6.699903309E-2,1.292124242E-1
1.167633688E1,-9.963713646E0,4.307080805E-2,1.100698411E-1
1.168602214E1,-9.963713646E0,2.392822690E-2,1.148554832E-1
1.169570734E1,-9.978070259E0,4.785645381E-2,1.148554832E-1
1.170539302E1,-9.973284721E0,3.349951655E-2,1.100698411E-1
1.171507818E1,-9.978070259E0,4.785645381E-2,1.004985496E-1
1.172476255E1,-9.973284721E0,3.828516230E-2,1.052841991E-1
1.173444682E1,-9.968499184E0,5.264209956E-2,1.100698411E-1
1.174413188E1,-9.963713646E0,4.785645381E-2,1.148554832E-1
1.175381604E1,-9.982855797E0,3.828516230E-2,1.100698411E-1
1.176350234E1,-9.968499184E0,5.742774159E-2,1.052841991E-1
1.177318781E1,-9.973284721E0,2.392822690E-2,1.244267747E-1
1.178287297E1,-9.968499184E0,4.307080805E-2,1.244267747E-1
1.179255823E1,-9.982855797E0,5.264209956E-2,1.052841991E-1
1.180224386E1,-9.973284721E0,4.307080805E-2,1.100698411E-1
1.181193000E1,-9.973284721E0,4.785645381E-2,1.100698411E-1
1.182161656E1,-9.963713646E0,4.307080805E-2,1.196411327E-1
1.183130042E1,-9.963713646E0,3.349951655E-2,1.052841991E-1
1.184098609E1,-9.968499184E0,4.307080805E-2,1.148554832E-1
1.185067261E1,-9.973284721E0,4.307080805E-2,1.052841991E-1
1.186035797E1,-9.958928108E0,5.264209956E-2,1.100698411E-1
1.187004323E1,-9.982855797E0,4.307080805E-2,1.052841991E-1
1.187972865E1,-9.973284721E0,3.828516230E-2,1.100698411E-1
1.188941412E1,-9.978070259E0,4.307080805E-2,1.052841991E-1
1.189909953E1,-9.963713646E0,4.307080805E-2,1.052841991E-1
1.190878620E1,-9.968499184E0,4.785645381E-2,1.052841991E-1
1.191847208E1,-9.958928108E0,2.871387079E-2,1.244267747E-1
1.192815781E1,-9.973284721E0,3.349951655E-2,1.148554832E-1
1.193784521E1,-9.973284721E0,3.828516230E-2,1.004985496E-1
1.194753281E1,-9.963713646E0,5.742774159E-2,1.100698411E-1
1.195721807E1,-9.973284721E0,4.785645381E-2,1.196411327E-1
1.196690386E1,-9.963713646E0,5.264209956E-2,1.100698411E-1
1.197658917E1,-9.987641335E0,4.785645381E-2,1.100698411E-1
1.198627516E1,-9.978070259E0,2.392822690E-2,1.052841991E-1
1.199596005E1,-9.963713646E0,5.264209956E-2,1.148554832E-1
1.200564453E1,-9.968499184E0,3.349951655E-2,1.100698411E-1
1.201532964E1,-9.973284721E0,3.828516230E-2,1.052841991E-1
1.202501531E1,-9.973284721E0,2.871387079E-2,1.052841991E-1
1.203469896E1,-9.982855797E0,4.785645381E-2,1.148554832E-1
1.204438287E1,-9.973284721E0,3.828516230E-2,1.196411327E-1
1.205406615E1,-9.973284721E0,3.828516230E-2,1.100698411E-1
1.206375047E1,-9.968499184E0,4.307080805E-2,1.100698411E-1
1.207343552E1,-9.978070259E0,5.264209956E-2,1.196411327E-1
1.208312182E1,-9.982855797E0,3.349951655E-2,1.100698411E-1
1.209280719E1,-9.973284721E0,4.785645381E-2,1.339980662E-1
1.210249198E1,-9.968499184E0,4.785645381E-2,1.148554832E-1
1.211217651E1,-9.973284721E0,4.307080805E-2,1.148554832E-1
1.212186141E1,-9.978070259E0,4.785645381E-2,1.100698411E-1
1.213154636E1,-9.968499184E0,3.828516230E-2,1.196411327E-1
1.214123208E1,-9.958928108E0,5.264209956E-2,1.100698411E-1
1.215091583E1,-9.963713646E0,4.785645381E-2,1.196411327E-1
1.216060031E1,-9.978070259E0,2.871387079E-2,1.244267747E-1
1.217028484E1,-9.973284721E0,3.828516230E-2,1.100698411E-1
1.217997109E1,-9.978070259E0,3.828516230E-2,1.148554832E-1
1.218965547E1,-9.978070259E0,3.349951655E-2,1.196411327E-1
1.219933896E1,-9.978070259E0,4.785645381E-2,1.100698411E-1
1.220902391E1,-9.973284721E0,2.871387079E-2,1.148554832E-1
1.221870703E1,-9.963713646E0,3.828516230E-2,1.292124242E-1
1.222839234E1,-9.973284721E0,3.828516230E-2,1.148554832E-1
1.223807672E1,-9.968499184E0,4.307080805E-2,1.196411327E-1
1.224776052E1,-9.992427826E0,5.742774159E-2,1.196411327E-1
1.225744443E1,-9.963713646E0,5.742774159E-2,9.571290761E-2
1.226712865E1,-9.978070259E0,4.307080805E-2,1.100698411E-1
1.227681281E1,-9.968499184E0,3.828516230E-2,1.100698411E-1
1.228649745E1,-9.963713646E0,4.307080805E-2,1.244267747E-1
1.229618302E1,-9.973284721E0,4.307080805E-2,1.196411327E-1
1.230586823E1,-9.973284721E0,5.264209956E-2,1.292124242E-1
1.231555313E1,-9.954142570E0,3.828516230E-2,1.244267747E-1
1.232523792E1,-9.954142570E0,5.264209956E-2,1.052841991E-1
1.233492359E1,-9.963713646E0,2.871387079E-2,1.148554832E-1
1.234460912E1,-9.958928108E0,3.828516230E-2,1.052841991E-1
1.235429432E1,-9.973284721E0,4.785645381E-2,1.100698411E-1
1.236397901E1,-9.958928108E0,4.785645381E-2,1.100698411E-1
1.237366500E1,-9.978070259E0,4.785645381E-2,1.244267747E-1
1.238334995E1,-9.973284721E0,5.264209956E-2,1.052841991E-1
1.239303563E1,-9.973284721E0,4.307080805E-2,1.244267747E-1
1.240272083E1,-9.978070259E0,4.785645381E-2,1.148554832E-1
1.241240651E1,-9.982855797E0,3.828516230E-2,1.004985496E-1
1.242209193E1,-9.963713646E0,4.785645381E-2,1.196411327E-1
1.243177708E1,-9.978070259E0,6.221338734E-2,1.148554832E-1
1.244146151E1,-9.978070259E0,5.264209956E-2,1.148554832E-1
1.245114620E1,-9.982855797E0,4.785645381E-2,1.148554832E-1
1.246083109E1,-9.978070259E0,4.785645381E-2,1.196411327E-1
1.247051693E1,-9.958928108E0,4.785645381E-2,1.196411327E-1
1.248020146E1,-9.987641335E0,5.742774159E-2,1.148554832E-1
1.248988667E1,-9.978070259E0,4.307080805E-2,1.148554832E-1
1.249957245E1,-9.973284721E0,3.349951655E-2,1.148554832E-1
1.250926120E1,-9.968499184E0,2.871387079E-2,1.100698411E-1
1.251894901E1,-9.978070259E0,4.785645381E-2,1.052841991E-1
1.252863427E1,-9.968499184E0,5.264209956E-2,1.100698411E-1
1.253832063E1,-9.973284721E0,3.349951655E-2,1.004985496E-1
1.254800734E1,-9.997213364E0,3.828516230E-2,1.148554832E-1
1.255769464E1,-9.968499184E0,4.785645381E-2,1.244267747E-1
1.256738177E1,-9.968499184E0,3.349951655E-2,9.571290761E-2
1.257706786E1,-9.973284721E0,4.307080805E-2,1.148554832E-1
1.258675386E1,-9.944570541E0,5.264209956E-2,1.148554832E-1
1.259644130E1,-9.968499184E0,4.785645381E-2,1.196411327E-1
1.260612771E1,-9.982855797E0,4.307080805E-2,1.148554832E-1
1.261581511E1,-9.963713646E0,4.307080805E-2,1.148554832E-1
1.262550167E1,-9.958928108E0,4.785645381E-2,1.244267747E-1
1.263518859E1,-9.968499184E0,4.785645381E-2,1.196411327E-1
1.264487599E1,-9.968499184E0,2.871387079E-2,1.004985496E-1
1.265456162E1,-9.978070259E0,3.349951655E-2,1.244267747E-1
1.266424740E1,-9.963713646E0,5.742774159E-2,1.244267747E-1
1.267393510E1,-9.968499184E0,3.828516230E-2,1.244267747E-1
1.268362125E1,-9.973284721E0,2.871387079E-2,1.100698411E-1
1.269330901E1,-9.949356079E0,4.307080805E-2,1.148554832E-1
1.270299490E1,-9.954142570E0,2.871387079E-2,1.196411327E-1
1.271267917E1,-9.978070259E0,5.264209956E-2,1.100698411E-1
1.272236594E1,-9.968499184E0,2.871387079E-2,1.004985496E-1
1.273205208E1,-9.963713646E0,4.307080805E-2,1.052841991E-1
1.274173833E1,-9.982855797E0,3.349951655E-2,1.100698411E-1
1.275142391E1,-9.982855797E0,4.307080805E-2,1.100698411E-1
1.276110953E1,-9.978070259E0,3.828516230E-2,1.148554832E-1
1.277079432E1,-9.963713646E0,4.785645381E-2,1.148554832E-1
1.278048026E1,-9.954142570E0,3.828516230E-2,1.196411327E-1
1.279016484E1,-9.978070259E0,4.307080805E-2,1.196411327E-1
1.279985016E1,-9.987641335E0,2.871387079E-2,1.244267747E-1
1.280953516E1,-9.968499184E0,5.742774159E-2,1.148554832E-1
1.281922146E1,-9.982855797E0,3.349951655E-2,1.148554832E-1
1.282890787E1,-9.973284721E0,2.871387079E-2,1.148554832E-1
1.283859401E1,-9.968499184E0,3.828516230E-2,1.100698411E-1
1.284827932E1,-9.973284721E0,2.871387079E-2,1.148554832E-1
1.285796495E1,-9.982855797E0,3.349951655E-2,1.100698411E-1
1.286765188E1,-9.973284721E0,3.828516230E-2,1.196411327E-1
1.287733734E1,-9.968499184E0,4.307080805E-2,1.292124242E-1
1.288702281E1,-9.992427826E0,2.871387079E-2,1.004985496E-1
1.289670833E1,-9.963713646E0,3.349951655E-2,1.100698411E-1
1.290639438E1,-9.973284721E0,5.264209956E-2,1.196411327E-1
1.291608057E1,-9.978070259E0,3.349951655E-2,1.148554832E-1
1.292576662E1,-9.963713646E0,3.828516230E-2,1.292124242E-1
1.293545177E1,-9.973284721E0,4.307080805E-2,1.148554832E-1
1.294513708E1,-9.973284721E0,4.307080805E-2,1.148554832E-1
1.295482229E1,-9.963713646E0,4.785645381E-2,1.244267747E-1
1.296450802E1,-9.982855797E0,4.785645381E-2,1.196411327E-1
1.297419292E1,-9.987641335E0,5.264209956E-2,1.196411327E-1
1.298387948E1,-9.982855797E0,5.264209956E-2,1.292124242E-1
1.299356500E1,-9.982855797E0,3.349951655E-2,1.004985496E-1
1.300325068E1,-9.958928108E0,4.307080805E-2,1.244267747E-1
1.301293719E1,-9.968499184E0,4.307080805E-2,1.196411327E-1
1.302262286E1,-9.968499184E0,4.307080805E-2,1.196411327E-1
1.303230813E1,-9.963713646E0,5.742774159E-2,1.196411327E-1
1.304199422E1,-9.973284721E0,3.349951655E-2,1.148554832E-1
1.305167886E1,-9.973284721E0,4.307080805E-2,1.196411327E-1
1.306136500E1,-9.968499184E0,5.264209956E-2,1.148554832E-1
1.307105141E1,-9.973284721E0,4.785645381E-2,1.196411327E-1
1.308073740E1,-9.978070259E0,3.828516230E-2,1.196411327E-1
1.309042333E1,-9.973284721E0,5.264209956E-2,1.100698411E-1
1.310010875E1,-9.973284721E0,2.871387079E-2,1.148554832E-1
1.310979292E1,-9.968499184E0,2.392822690E-2,1.196411327E-1
1.311947776E1,-9.992427826E0,4.785645381E-2,1.100698411E-1
1.312916412E1,-9.968499184E0,6.699903309E-2,1.100698411E-1
1.313884964E1,-9.982855797E0,4.307080805E-2,1.244267747E-1
1.314853594E1,-9.968499184E0,3.828516230E-2,1.244267747E-1
1.315822109E1,-9.968499184E0,5.742774159E-2,1.148554832E-1
1.316790682E1,-9.963713646E0,4.785645381E-2,1.100698411E-1
1.317759182E1,-9.992427826E0,5.742774159E-2,1.052841991E-1
1.318727714E1,-9.978070259E0,4.307080805E-2,1.004985496E-1
1.319696370E1,-9.982855797E0,4.307080805E-2,1.100698411E-1
1.320664844E1,-9.978070259E0,5.264209956E-2,1.148554832E-1
1.321633359E1,-9.968499184E0,1.435693540E-2,1.100698411E-1
1.322602011E1,-9.968499184E0,3.349951655E-2,1.196411327E-1
1.323570745E1,-9.963713646E0,3.828516230E-2,1.244267747E-1
1.324539406E1,-9.982855797E0,3.828516230E-2,1.052841991E-1
1.325507901E1,-9.968499184E0,3.349951655E-2,1.196411327E-1
1.326476458E1,-9.958928108E0,4.307080805E-2,1.148554832E-1
1.327445094E1,-9.968499184E0,6.221338734E-2,1.196411327E-1
1.328413688E1,-9.973284721E0,3.828516230E-2,1.148554832E-1
1.329382083E1,-9.963713646E0,4.307080805E-2,1.148554832E-1
1.330350625E1,-9.982855797E0,4.307080805E-2,1.148554832E-1
1.331319141E1,-9.973284721E0,3.828516230E-2,1.100698411E-1
1.332287594E1,-9.973284721E0,3.349951655E-2,1.148554832E-1
1.333256031E1,-9.978070259E0,4.307080805E-2,1.100698411E-1
1.334224323E1,-9.978070259E0,3.349951655E-2,1.196411327E-1
1.335192906E1,-9.978070259E0,3.828516230E-2,1.100698411E-1
1.336161479E1,-9.982855797E0,3.828516230E-2,1.052841991E-1
1.337129948E1,-9.973284721E0,4.785645381E-2,1.100698411E-1
1.338098406E1,-9.978070259E0,3.828516230E-2,1.100698411E-1
1.339066880E1,-9.978070259E0,3.349951655E-2,1.148554832E-1
1.340035396E1,-9.963713646E0,3.349951655E-2,1.196411327E-1
1.341003964E1,-9.973284721E0,3.828516230E-2,1.148554832E-1
1.341972458E1,-9.958928108E0,2.392822690E-2,1.244267747E-1
1.342940828E1,-9.968499184E0,3.828516230E-2,1.148554832E-1
1.343909375E1,-9.973284721E0,2.871387079E-2,1.196411327E-1
1.344878005E1,-9.973284721E0,2.871387079E-2,1.244267747E-1
1.345846599E1,-9.978070259E0,2.392822690E-2,1.196411327E-1
1.346815094E1,-9.968499184E0,2.392822690E-2,1.052841991E-1
1.347783714E1,-9.982855797E0,1.914258115E-2,1.100698411E-1
1.348752302E1,-9.973284721E0,5.264209956E-2,1.292124242E-1
1.349720886E1,-9.978070259E0,5.264209956E-2,1.292124242E-1
1.350689552E1,-9.978070259E0,3.349951655E-2,1.244267747E-1
1.351658011E1,-9.978070259E0,3.349951655E-2,1.148554832E-1
1.352626609E1,-9.978070259E0,4.785645381E-2,1.100698411E-1
1.353595307E1,-9.968499184E0,4.785645381E-2,9.571290761E-2
1.354563938E1,-9.963713646E0,4.785645381E-2,1.196411327E-1
1.355532469E1,-9.973284721E0,4.785645381E-2,1.244267747E-1
1.356501031E1,-9.987641335E0,4.785645381E-2,1.196411327E-1
1.357469505E1,-9.978070259E0,5.742774159E-2,1.100698411E-1
1.358438011E1,-9.958928108E0,3.828516230E-2,1.244267747E-1
1.359406630E1,-9.973284721E0,3.828516230E-2,1.052841991E-1
1.360375052E1,-9.987641335E0,5.742774159E-2,1.100698411E-1
1.361343448E1,-9.973284721E0,4.785645381E-2,1.148554832E-1
1.362312057E1,-9.963713646E0,4.785645381E-2,9.571290761E-2
1.363280771E1,-9.973284721E0,5.264209956E-2,1.052841991E-1
1.364249323E1,-9.963713646E0,5.264209956E-2,1.148554832E-1
1.365217755E1,-9.973284721E0,2.871387079E-2,1.148554832E-1
1.366186172E1,-9.973284721E0,2.871387079E-2,1.148554832E-1
1.367154646E1,-9.958928108E0,3.828516230E-2,9.571290761E-2
1.368123182E1,-9.973284721E0,5.264209956E-2,1.100698411E-1
1.369091761E1,-9.963713646E0,3.828516230E-2,1.196411327E-1
1.370060422E1,-9.968499184E0,2.392822690E-2,1.196411327E-1
1.371029000E1,-9.968499184E0,3.828516230E-2,1.052841991E-1
1.371997537E1,-9.963713646E0,4.307080805E-2,1.052841991E-1
1.372965984E1,-9.958928108E0,3.828516230E-2,1.196411327E-1
1.373934521E1,-9.973284721E0,3.349951655E-2,1.244267747E-1
1.374903047E1,-9.963713646E0,5.264209956E-2,1.244267747E-1
1.375871443E1,-9.978070259E0,3.828516230E-2,1.052841991E-1
1.376839927E1,-9.958928108E0,4.307080805E-2,1.100698411E-1
1.377808432E1,-9.958928108E0,5.264209956E-2,1.148554832E-1
1.378776880E1,-9.982855797E0,5.264209956E-2,1.148554832E-1
1.379745245E1,-9.963713646E0,3.828516230E-2,1.244267747E-1
1.380713708E1,-9.978070259E0,5.264209956E-2,1.052841991E-1
1.381682333E1,-9.978070259E0,3.349951655E-2,1.052841991E-1
1.382650932E1,-9.968499184E0,2.871387079E-2,1.196411327E-1
1.383619583E1,-9.968499184E0,4.307080805E-2,1.004985496E-1
1.384588177E1,-9.963713646E0,5.264209956E-2,1.100698411E-1
1.385556740E1,-9.963713646E0,4.785645381E-2,1.387837082E-1
1.386525307E1,-9.968499184E0,5.264209956E-2,1.148554832E-1
1.387494057E1,-9.963713646E0,3.828516230E-2,1.196411327E-1
1.388462604E1,-9.978070259E0,4.307080805E-2,1.148554832E-1
1.389431193E1,-9.982855797E0,3.828516230E-2,1.196411327E-1
1.390399636E1,-9.987641335E0,4.307080805E-2,1.148554832E-1
1.391368188E1,-9.968499184E0,4.307080805E-2,1.100698411E-1
1.392336594E1,-9.973284721E0,3.349951655E-2,1.052841991E-1
1.393305172E1,-9.963713646E0,3.828516230E-2,1.100698411E-1
1.394273745E1,-9.978070259E0,5.264209956E-2,1.052841991E-1
1.395242396E1,-9.973284721E0,4.307080805E-2,1.148554832E-1
1.396210870E1,-9.978070259E0,4.785645381E-2,1.100698411E-1
1.397179349E1,-9.968499184E0,5.742774159E-2,1.148554832E-1
1.398148052E1,-9.978070259E0,3.349951655E-2,1.100698411E-1
1.399116609E1,-9.978070259E0,2.871387079E-2,1.244267747E-1
1.400085000E1,-9.987641335E0,3.828516230E-2,1.100698411E-1
1.401053505E1,-9.978070259E0,4.307080805E-2,1.100698411E-1
1.402022068E1,-9.958928108E0,3.349951655E-2,1.100698411E-1
1.402990641E1,-9.968499184E0,4.307080805E-2,1.148554832E-1
1.403959203E1,-9.954142570E0,3.349951655E-2,1.100698411E-1
1.404927672E1,-9.968499184E0,4.785645381E-2,1.196411327E-1
1.405896005E1,-9.992427826E0,2.871387079E-2,1.196411327E-1
1.406864542E1,-9.963713646E0,4.785645381E-2,1.100698411E-1
1.407833068E1,-9.963713646E0,3.349951655E-2,1.100698411E-1
1.408801609E1,-9.978070259E0,3.828516230E-2,1.196411327E-1
1.409770229E1,-9.963713646E0,5.264209956E-2,1.100698411E-1
1.410738870E1,-9.958928108E0,4.307080805E-2,1.148554832E-1
1.411707552E1,-9.963713646E0,3.828516230E-2,1.339980662E-1
1.412676198E1,-9.968499184E0,4.785645381E-2,1.148554832E-1
1.413644667E1,-9.968499184E0,3.349951655E-2,1.148554832E-1
1.414613260E1,-9.973284721E0,2.871387079E-2,1.148554832E-1
1.415581714E1,-9.973284721E0,4.307080805E-2,1.100698411E-1
1.416550177E1,-9.968499184E0,3.349951655E-2,1.052841991E-1
1.417518854E1,-9.982855797E0,3.828516230E-2,1.052841991E-1
1.418487333E1,-9.992427826E0,3.349951655E-2,1.148554832E-1
1.419455891E1,-9.982855797E0,4.785645381E-2,1.100698411E-1
1.420424604E1,-9.973284721E0,5.264209956E-2,1.148554832E-1
1.421393245E1,-9.958928108E0,5.742774159E-2,1.148554832E-1
1.422361771E1,-9.958928108E0,5.264209956E-2,1.148554832E-1
1.423330386E1,-9.968499184E0,3.828516230E-2,1.196411327E-1
1.424298948E1,-9.982855797E0,5.264209956E-2,1.244267747E-1
1.425267386E1,-9.973284721E0,5.264209956E-2,1.052841991E-1
1.426235938E1,-9.982855797E0,5.264209956E-2,1.148554832E-1
1.427204432E1,-9.963713646E0,4.307080805E-2,9.571290761E-2
1.428173042E1,-9.973284721E0,4.307080805E-2,1.196411327E-1
1.429141651E1,-9.978070259E0,3.349951655E-2,1.196411327E-1
1.430110130E1,-9.978070259E0,3.828516230E-2,1.196411327E-1
1.431078703E1,-9.987641335E0,3.828516230E-2,1.052841991E-1
1.432047401E1,-9.958928108E0,3.349951655E-2,1.339980662E-1
1.433016031E1,-9.968499184E0,3.828516230E-2,1.244267747E-1
1.433984406E1,-9.963713646E0,5.742774159E-2,1.196411327E-1
1.434953052E1,-9.968499184E0,2.871387079E-2,1.196411327E-1
1.435921526E1,-9.982855797E0,2.392822690E-2,1.196411327E-1
1.436890234E1,-9.958928108E0,5.264209956E-2,1.100698411E-1
1.437858870E1,-9.963713646E0,4.785645381E-2,1.100698411E-1
1.438827432E1,-9.973284721E0,3.828516230E-2,1.196411327E-1
1.439796052E1,-9.978070259E0,3.349951655E-2,1.100698411E-1
1.440764776E1,-9.973284721E0,4.785645381E-2,1.052841991E-1
1.441733453E1,-9.973284721E0,4.785645381E-2,1.052841991E-1
1.442702052E1,-9.982855797E0,5.742774159E-2,1.100698411E-1
1.443670677E1,-9.978070259E0,3.828516230E-2,1.196411327E-1
1.444639339E1,-9.978070259E0,5.264209956E-2,1.004985496E-1
1.445608000E1,-9.982855797E0,4.785645381E-2,1.244267747E-1
1.446576521E1,-9.954142570E0,3.828516230E-2,1.196411327E-1
1.447545000E1,-9.963713646E0,3.349951655E-2,1.196411327E-1
1.448513542E1,-9.968499184E0,4.307080805E-2,1.148554832E-1
1.449482047E1,-9.968499184E0,6.699903309E-2,1.196411327E-1
1.450450511E1,-9.973284721E0,4.785645381E-2,1.100698411E-1
1.451419099E1,-9.963713646E0,3.349951655E-2,1.244267747E-1
1.452387719E1,-9.987641335E0,3.828516230E-2,1.292124242E-1
1.453356286E1,-9.978070259E0,4.307080805E-2,1.196411327E-1
1.454324917E1,-9.968499184E0,4.307080805E-2,1.196411327E-1
1.455293557E1,-9.968499184E0,3.349951655E-2,1.100698411E-1
1.456262229E1,-9.954142570E0,5.742774159E-2,1.004985496E-1
1.457231021E1,-9.968499184E0,3.828516230E-2,1.292124242E-1
1.458199589E1,-9.987641335E0,3.828516230E-2,1.148554832E-1
1.459168234E1,-9.968499184E0,2.871387079E-2,1.292124242E-1
1.460136844E1,-9.973284721E0,4.785645381E-2,1.148554832E-1
1.461105354E1,-9.968499184E0,2.871387079E-2,1.196411327E-1
1.462073917E1,-9.968499184E0,4.307080805E-2,1.196411327E-1
1.463042484E1,-9.968499184E0,2.871387079E-2,1.244267747E-1
1.464011182E1,-9.982855797E0,4.307080805E-2,1.052841991E-1
1.464979896E1,-9.968499184E0,3.828516230E-2,1.100698411E-1
1.465948714E1,-9.982855797E0,5.264209956E-2,1.052841991E-1
1.466917261E1,-9.968499184E0,3.828516230E-2,1.100698411E-1
1.467885703E1,-9.978070259E0,3.828516230E-2,1.052841991E-1
1.468854224E1,-9.978070259E0,3.828516230E-2,1.244267747E-1
1.469822724E1,-9.973284721E0,5.264209956E-2,1.196411327E-1
1.470791375E1,-9.963713646E0,2.871387079E-2,1.196411327E-1
1.471760000E1,-9.949356079E0,4.307080805E-2,1.244267747E-1
1.472728594E1,-9.982855797E0,4.307080805E-2,1.100698411E-1
1.473697349E1,-9.968499184E0,4.307080805E-2,1.244267747E-1
1.474666047E1,-9.968499184E0,3.828516230E-2,1.148554832E-1
1.475634568E1,-9.968499184E0,4.307080805E-2,1.244267747E-1
1.476603146E1,-9.987641335E0,5.264209956E-2,1.196411327E-1
1.477571771E1,-9.968499184E0,2.871387079E-2,1.148554832E-1
1.478540386E1,-9.978070259E0,3.828516230E-2,1.100698411E-1
1.479508948E1,-9.968499184E0,3.828516230E-2,1.052841991E-1
1.480477604E1,-9.973284721E0,4.785645381E-2,1.148554832E-1
1.481446386E1,-9.968499184E0,4.307080805E-2,1.148554832E-1
1.482415172E1,-9.978070259E0,4.785645381E-2,1.052841991E-1
1.483383880E1,-9.978070259E0,4.307080805E-2,1.148554832E-1
1.484352448E1,-9.982855797E0,4.785645381E-2,1.244267747E-1
1.485321068E1,-9.987641335E0,3.349951655E-2,1.100698411E-1
1.486289698E1,-9.973284721E0,4.307080805E-2,1.100698411E-1
1.487258245E1,-9.968499184E0,3.828516230E-2,1.100698411E-1
1.488226734E1,-9.973284721E0,3.828516230E-2,1.148554832E-1
1.489195297E1,-9.968499184E0,5.264209956E-2,1.004985496E-1
1.490163964E1,-9.978070259E0,4.785645381E-2,1.100698411E-1
1.491132547E1,-9.973284721E0,2.871387079E-2,1.196411327E-1
1.492101214E1,-9.968499184E0,6.221338734E-2,1.244267747E-1
1.493069865E1,-9.968499184E0,3.828516230E-2,1.100698411E-1
1.494038406E1,-9.973284721E0,3.828516230E-2,1.052841991E-1
1.495006932E1,-9.954142570E0,3.828516230E-2,1.100698411E-1
1.495975484E1,-9.968499184E0,4.785645381E-2,1.292124242E-1
1.496944057E1,-9.968499184E0,4.785645381E-2,1.148554832E-1
1.497912703E1,-9.978070259E0,3.349951655E-2,1.196411327E-1
1.498881214E1,-9.973284721E0,3.828516230E-2,1.244267747E-1
1.499849917E1,-9.982855797E0,3.828516230E-2,1.100698411E-1
1.500818552E1,-9.963713646E0,2.871387079E-2,1.052841991E-1
1.501787245E1,-9.973284721E0,2.871387079E-2,1.148554832E-1
1.502755958E1,-9.973284721E0,1.914258115E-2,1.100698411E-1
1.503724578E1,-9.963713646E0,4.785645381E-2,1.244267747E-1
1.504693115E1,-9.968499184E0,3.828516230E-2,1.244267747E-1
1.505661630E1,-9.973284721E0,4.785645381E-2,1.244267747E-1
1.506630182E1,-9.963713646E0,2.871387079E-2,1.196411327E-1
1.507598641E1,-9.978070259E0,2.871387079E-2,1.100698411E-1
1.508567224E1,-9.982855797E0,4.307080805E-2,1.148554832E-1
1.509535781E1,-9.978070259E0,4.307080805E-2,1.196411327E-1
1.510504391E1,-9.958928108E0,2.871387079E-2,1.148554832E-1
1.511472880E1,-9.973284721E0,3.828516230E-2,1.148554832E-1
1.512441490E1,-9.968499184E0,3.828516230E-2,1.196411327E-1
1.513410188E1,-9.968499184E0,5.264209956E-2,1.052841991E-1
1.514378677E1,-9.978070259E0,5.742774159E-2,1.004985496E-1
1.515347261E1,-9.958928108E0,2.392822690E-2,1.100698411E-1
1.516315786E1,-9.968499184E0,2.871387079E-2,1.100698411E-1
1.517284349E1,-9.963713646E0,4.307080805E-2,1.148554832E-1
1.518252922E1,-9.968499184E0,5.264209956E-2,1.052841991E-1
1.519221557E1,-9.973284721E0,4.307080805E-2,1.052841991E-1
1.520190167E1,-9.963713646E0,3.828516230E-2,1.196411327E-1
1.521158828E1,-9.978070259E0,4.785645381E-2,1.148554832E-1
1.522127396E1,-9.968499184E0,3.828516230E-2,1.052841991E-1
1.523095958E1,-9.973284721E0,6.699903309E-2,1.052841991E-1
1.524064552E1,-9.973284721E0,2.871387079E-2,1.100698411E-1
1.525033104E1,-9.982855797E0,4.785645381E-2,1.052841991E-1
1.526001573E1,-9.982855797E0,4.307080805E-2,1.100698411E-1
1.526970089E1,-9.968499184E0,4.307080805E-2,1.196411327E-1
1.527938656E1,-9.978070259E0,5.264209956E-2,1.148554832E-1
1.528907203E1,-9.978070259E0,5.264209956E-2,1.052841991E-1
1.529875672E1,-9.978070259E0,5.742774159E-2,1.292124242E-1
1.530844302E1,-9.982855797E0,5.742774159E-2,1.196411327E-1
1.531812802E1,-9.968499184E0,3.349951655E-2,1.148554832E-1
1.532781359E1,-9.973284721E0,4.785645381E-2,1.148554832E-1
1.533749896E1,-9.973284721E0,3.828516230E-2,1.052841991E-1
1.534718349E1,-9.968499184E0,3.349951655E-2,1.100698411E-1
1.535686854E1,-9.973284721E0,3.828516230E-2,1.052841991E-1
1.536655365E1,-9.963713646E0,4.307080805E-2,1.004985496E-1
1.537623792E1,-9.982855797E0,4.307080805E-2,1.100698411E-1
1.538592318E1,-9.978070259E0,5.264209956E-2,1.148554832E-1
1.539560682E1,-9.963713646E0,5.264209956E-2,1.148554832E-1
1.540529057E1,-9.978070259E0,2.871387079E-2,9.571290761E-2
1.541497531E1,-9.968499184E0,3.828516230E-2,1.100698411E-1
1.542465870E1,-9.963713646E0,4.307080805E-2,1.100698411E-1
1.543434365E1,-9.968499184E0,4.785645381E-2,1.148554832E-1
1.544402865E1,-9.968499184E0,4.307080805E-2,1.148554832E-1
1.545371349E1,-9.978070259E0,3.828516230E-2,1.100698411E-1
1.546339740E1,-9.958928108E0,3.828516230E-2,1.100698411E-1
1.547308104E1,-9.968499184E0,5.742774159E-2,1.100698411E-1
1.548276453E1,-9.978070259E0,4.785645381E-2,1.004985496E-1
1.549245011E1,-9.982855797E0,5.264209956E-2,1.196411327E-1
1.550213557E1,-9.973284721E0,5.742774159E-2,1.100698411E-1
1.551182162E1,-9.973284721E0,2.392822690E-2,1.244267747E-1
1.552150526E1,-9.973284721E0,4.307080805E-2,1.100698411E-1
1.553118964E1,-9.963713646E0,2.871387079E-2,1.052841991E-1
1.554087276E1,-9.978070259E0,4.785645381E-2,1.196411327E-1
1.555055766E1,-9.973284721E0,3.828516230E-2,1.148554832E-1
1.556024302E1,-9.963713646E0,4.307080805E-2,1.244267747E-1
1.556992792E1,-9.978070259E0,3.349951655E-2,1.196411327E-1
1.557961281E1,-9.973284721E0,4.307080805E-2,1.052841991E-1
1.558929833E1,-9.968499184E0,4.307080805E-2,1.196411327E-1
1.559898219E1,-9.982855797E0,3.828516230E-2,1.100698411E-1
1.560866615E1,-9.958928108E0,4.307080805E-2,1.100698411E-1
1.561835146E1,-9.973284721E0,3.349951655E-2,1.196411327E-1
1.562803771E1,-9.963713646E0,4.307080805E-2,1.244267747E-1
1.563772219E1,-9.973284721E0,5.264209956E-2,1.148554832E-1
1.564740719E1,-9.973284721E0,5.742774159E-2,1.196411327E-1
1.565709214E1,-9.958928108E0,4.307080805E-2,1.100698411E-1
1.566677537E1,-9.958928108E0,2.871387079E-2,1.148554832E-1
1.567645932E1,-9.968499184E0,4.307080805E-2,1.148554832E-1
1.568614474E1,-9.978070259E0,4.307080805E-2,1.004985496E-1
1.569582906E1,-9.982855797E0,4.785645381E-2,1.148554832E-1
1.570551276E1,-9.978070259E0,4.785645381E-2,1.052841991E-1
1.571519636E1,-9.978070259E0,4.307080805E-2,1.052841991E-1
1.572488042E1,-9.944570541E0,3.828516230E-2,1.100698411E-1
1.573456448E1,-9.968499184E0,3.349951655E-2,1.052841991E-1
1.574424802E1,-9.958928108E0,4.307080805E-2,1.052841991E-1
1.575393214E1,-9.982855797E0,3.828516230E-2,1.196411327E-1
1.576361636E1,-9.968499184E0,4.785645381E-2,1.100698411E-1
1.577330125E1,-9.973284721E0,4.785645381E-2,1.244267747E-1
1.578298698E1,-9.973284721E0,5.264209956E-2,1.244267747E-1
1.579267234E1,-9.978070259E0,3.828516230E-2,1.100698411E-1
1.580235682E1,-9.973284721E0,4.785645381E-2,1.148554832E-1
1.581204203E1,-9.958928108E0,4.785645381E-2,1.244267747E-1
1.582172625E1,-9.973284721E0,4.307080805E-2,1.148554832E-1
1.583141224E1,-9.982855797E0,3.828516230E-2,1.148554832E-1
1.584109755E1,-9.982855797E0,3.349951655E-2,1.244267747E-1
1.585078234E1,-9.978070259E0,4.785645381E-2,9.571290761E-2
1.586046688E1,-9.968499184E0,3.828516230E-2,1.196411327E-1
1.587015151E1,-9.973284721E0,3.828516230E-2,1.052841991E-1
1.587983688E1,-9.978070259E0,5.264209956E-2,1.100698411E-1
1.588952354E1,-9.968499184E0,5.742774159E-2,1.148554832E-1
1.589920875E1,-9.968499184E0,3.828516230E-2,1.196411327E-1
1.590889370E1,-9.978070259E0,4.307080805E-2,9.571290761E-2
1.591857833E1,-9.968499184E0,3.349951655E-2,1.148554832E-1
1.592826323E1,-9.973284721E0,3.828516230E-2,1.196411327E-1
1.593794771E1,-9.968499184E0,4.307080805E-2,1.148554832E-1
1.594763214E1,-9.963713646E0,4.307080805E-2,1.148554832E-1
1.595731662E1,-9.978070259E0,3.349951655E-2,1.004985496E-1
1.596700198E1,-9.978070259E0,4.307080805E-2,1.100698411E-1
1.597668693E1,-9.963713646E0,3.828516230E-2,1.052841991E-1
1.598636969E1,-9.963713646E0,5.264209956E-2,1.100698411E-1
1.599605307E1,-9.978070259E0,5.264209956E-2,1.148554832E-1
1.600573766E1,-9.968499184E0,2.392822690E-2,1.148554832E-1
1.601542276E1,-9.982855797E0,4.307080805E-2,1.196411327E-1
1.602510776E1,-9.978070259E0,4.307080805E-2,1.148554832E-1
1.603479276E1,-9.973284721E0,5.264209956E-2,1.148554832E-1
1.604447734E1,-9.968499184E0,3.828516230E-2,1.244267747E-1
1.605416307E1,-9.973284721E0,4.785645381E-2,1.196411327E-1
1.606384688E1,-9.973284721E0,4.307080805E-2,1.148554832E-1
1.607353146E1,-9.978070259E0,3.349951655E-2,1.148554832E-1
1.608321677E1,-9.978070259E0,4.307080805E-2,1.148554832E-1
1.609290193E1,-9.968499184E0,4.785645381E-2,1.100698411E-1
1.610258557E1,-9.958928108E0,4.307080805E-2,1.196411327E-1
1.611226953E1,-9.968499184E0,4.307080805E-2,1.148554832E-1
1.612195386E1,-9.973284721E0,3.828516230E-2,1.148554832E-1
1.613163912E1,-9.978070259E0,4.307080805E-2,1.244267747E-1
1.614132255E1,-9.958928108E0,5.742774159E-2,1.196411327E-1
1.615100625E1,-9.973284721E0,3.349951655E-2,1.196411327E-1
1.616068943E1,-9.973284721E0,4.307080805E-2,1.148554832E-1
1.617037573E1,-9.978070259E0,4.785645381E-2,1.100698411E-1
1.618006057E1,-9.978070259E0,3.828516230E-2,1.148554832E-1
1.618974568E1,-9.982855797E0,2.871387079E-2,1.004985496E-1
1.619943042E1,-9.973284721E0,3.828516230E-2,1.339980662E-1
1.620911542E1,-9.973284721E0,4.307080805E-2,1.244267747E-1
1.621880078E1,-9.968499184E0,4.785645381E-2,1.148554832E-1
1.622848589E1,-9.968499184E0,3.828516230E-2,1.148554832E-1
1.623817287E1,-9.978070259E0,4.307080805E-2,1.244267747E-1
1.624785807E1,-9.978070259E0,4.307080805E-2,1.100698411E-1
1.625754323E1,-9.968499184E0,4.307080805E-2,1.148554832E-1
1.626722693E1,-9.968499184E0,2.392822690E-2,1.052841991E-1
1.627691188E1,-9.968499184E0,4.307080805E-2,1.100698411E-1
1.628659844E1,-9.968499184E0,3.828516230E-2,1.100698411E-1
1.629628401E1,-9.968499184E0,3.349951655E-2,1.148554832E-1
1.630596859E1,-9.963713646E0,4.307080805E-2,1.196411327E-1
1.631565339E1,-9.982855797E0,5.264209956E-2,1.148554832E-1
1.632533912E1,-9.982855797E0,4.307080805E-2,1.100698411E-1
1.633502443E1,-9.982855797E0,3.828516230E-2,1.100698411E-1
1.634470755E1,-9.968499184E0,4.307080805E-2,1.196411327E-1
1.635439318E1,-9.973284721E0,3.828516230E-2,1.148554832E-1
1.636407761E1,-9.963713646E0,4.785645381E-2,1.196411327E-1
1.637376130E1,-9.963713646E0,5.742774159E-2,1.052841991E-1
1.638344750E1,-9.978070259E0,5.742774159E-2,1.100698411E-1
1.639313167E1,-9.973284721E0,4.307080805E-2,1.244267747E-1
1.640281771E1,-9.982855797E0,2.871387079E-2,1.148554832E-1
1.641250292E1,-9.973284721E0,3.828516230E-2,1.052841991E-1
1.642218750E1,-9.958928108E0,3.828516230E-2,1.004985496E-1
1.643187156E1,-9.973284721E0,2.871387079E-2,1.052841991E-1
1.644155714E1,-9.958928108E0,5.264209956E-2,1.004985496E-1
1.645124188E1,-9.958928108E0,5.264209956E-2,1.004985496E-1
1.646092818E1,-9.968499184E0,3.828516230E-2,1.148554832E-1
1.647061438E1,-9.968499184E0,4.785645381E-2,1.004985496E-1
1.648030052E1,-9.968499184E0,5.264209956E-2,1.196411327E-1
1.648998656E1,-9.963713646E0,3.349951655E-2,1.148554832E-1
1.649967136E1,-9.973284721E0,4.307080805E-2,1.148554832E-1
1.650935594E1,-9.978070259E0,3.349951655E-2,1.100698411E-1
1.651904146E1,-9.968499184E0,2.871387079E-2,1.196411327E-1
1.652872682E1,-9.973284721E0,3.828516230E-2,1.196411327E-1
1.653841203E1,-9.973284721E0,5.742774159E-2,1.244267747E-1
1.654809787E1,-9.973284721E0,4.307080805E-2,1.148554832E-1
1.655778365E1,-9.963713646E0,4.785645381E-2,1.100698411E-1
1.656746859E1,-9.968499184E0,4.307080805E-2,1.148554832E-1
1.657715432E1,-9.968499184E0,4.307080805E-2,1.196411327E-1
1.658684094E1,-9.973284721E0,6.221338734E-2,1.196411327E-1
1.659652672E1,-9.982855797E0,4.307080805E-2,1.100698411E-1
1.660621240E1,-9.982855797E0,4.307080805E-2,1.196411327E-1
1.661589771E1,-9.958928108E0,2.871387079E-2,1.148554832E-1
1.662558339E1,-9.958928108E0,5.742774159E-2,1.196411327E-1
1.663527016E1,-9.968499184E0,4.785645381E-2,1.196411327E-1
1.664495573E1,-9.963713646E0,4.785645381E-2,1.004985496E-1
1.665464162E1,-9.982855797E0,5.742774159E-2,1.052841991E-1
1.666432677E1,-9.987641335E0,5.742774159E-2,1.148554832E-1
1.667401286E1,-9.963713646E0,4.307080805E-2,1.100698411E-1
1.668369979E1,-9.963713646E0,3.828516230E-2,1.148554832E-1
1.669338568E1,-9.968499184E0,5.742774159E-2,1.196411327E-1
1.670306938E1,-9.978070259E0,5.264209956E-2,1.148554832E-1
1.671275287E1,-9.982855797E0,5.264209956E-2,1.148554832E-1
1.672243662E1,-9.973284721E0,5.264209956E-2,1.148554832E-1
1.673212036E1,-9.968499184E0,5.742774159E-2,9.571290761E-2
1.674180474E1,-9.987641335E0,2.871387079E-2,1.148554832E-1
1.675149011E1,-9.997213364E0,4.785645381E-2,1.052841991E-1
1.676117443E1,-9.973284721E0,5.264209956E-2,1.052841991E-1
1.677085953E1,-9.963713646E0,2.871387079E-2,1.196411327E-1
1.678054526E1,-9.963713646E0,5.264209956E-2,1.100698411E-1
1.679023156E1,-9.963713646E0,5.264209956E-2,1.148554832E-1
1.679991682E1,-9.968499184E0,4.785645381E-2,1.244267747E-1
1.680960344E1,-9.978070259E0,5.264209956E-2,1.148554832E-1
1.681928833E1,-9.973284721E0,4.307080805E-2,1.148554832E-1
1.682897286E1,-9.958928108E0,4.785645381E-2,1.052841991E-1
1.683865823E1,-9.982855797E0,4.307080805E-2,1.148554832E-1
1.684834401E1,-9.954142570E0,1.914258115E-2,1.148554832E-1
1.685803052E1,-9.973284721E0,3.828516230E-2,1.100698411E-1
1.686771511E1,-9.968499184E0,3.828516230E-2,1.196411327E-1
1.687740068E1,-9.949356079E0,3.828516230E-2,1.244267747E-1
1.688708698E1,-9.973284721E0,4.785645381E-2,1.292124242E-1
1.689677354E1,-9.973284721E0,4.307080805E-2,1.148554832E-1
1.690645984E1,-9.954142570E0,5.264209956E-2,1.148554832E-1
1.691614604E1,-9.982855797E0,3.828516230E-2,1.148554832E-1
1.692583302E1,-9.992427826E0,4.785645381E-2,1.196411327E-1
1.693551792E1,-9.982855797E0,5.264209956E-2,1.148554832E-1
1.694520526E1,-9.973284721E0,4.307080805E-2,1.244267747E-1
1.695489125E1,-9.968499184E0,5.264209956E-2,1.196411327E-1
1.696457693E1,-9.968499184E0,4.785645381E-2,1.244267747E-1
1.697426302E1,-9.968499184E0,2.871387079E-2,1.196411327E-1
1.698394891E1,-9.958928108E0,4.307080805E-2,1.148554832E-1
1.699363438E1,-9.958928108E0,3.349951655E-2,1.052841991E-1
1.700331953E1,-9.978070259E0,4.307080805E-2,1.100698411E-1
1.701300484E1,-9.987641335E0,3.349951655E-2,1.148554832E-1
1.702269089E1,-9.963713646E0,2.871387079E-2,1.100698411E-1
1.703237620E1,-9.968499184E0,2.871387079E-2,1.148554832E-1
1.704206219E1,-9.987641335E0,2.871387079E-2,1.148554832E-1
1.705174667E1,-9.968499184E0,5.742774159E-2,1.148554832E-1
1.706143224E1,-9.963713646E0,4.785645381E-2,1.148554832E-1
1.707111766E1,-9.973284721E0,4.785645381E-2,1.148554832E-1
1.708080224E1,-9.973284721E0,5.264209956E-2,1.196411327E-1
1.709048760E1,-9.987641335E0,4.785645381E-2,1.100698411E-1
1.710017297E1,-9.978070259E0,5.742774159E-2,1.100698411E-1
1.710985912E1,-9.958928108E0,2.871387079E-2,1.100698411E-1
1.711954479E1,-9.973284721E0,4.785645381E-2,1.196411327E-1
1.712922953E1,-9.963713646E0,4.307080805E-2,1.100698411E-1
1.713891583E1,-9.982855797E0,4.785645381E-2,1.100698411E-1
1.714860162E1,-9.982855797E0,4.785645381E-2,1.196411327E-1
1.715828886E1,-9.982855797E0,2.871387079E-2,1.244267747E-1
1.716797438E1,-9.973284721E0,4.785645381E-2,1.052841991E-1
1.717765958E1,-9.968499184E0,5.264209956E-2,1.196411327E-1
1.718734630E1,-9.968499184E0,4.785645381E-2,1.100698411E-1
1.719703167E1,-9.958928108E0,3.828516230E-2,1.100698411E-1
1.720671886E1,-9.978070259E0,2.392822690E-2,1.196411327E-1
1.721640349E1,-9.978070259E0,4.785645381E-2,1.196411327E-1
1.722608833E1,-9.973284721E0,4.785645381E-2,1.100698411E-1
1.723577573E1,-9.958928108E0,4.307080805E-2,1.100698411E-1
1.724546182E1,-9.973284721E0,5.264209956E-2,1.196411327E-1
1.725514833E1,-9.973284721E0,4.785645381E-2,1.196411327E-1
1.726483516E1,-9.982855797E0,4.785645381E-2,1.196411327E-1
1.727452188E1,-9.978070259E0,4.307080805E-2,1.196411327E-1
1.728420854E1,-9.982855797E0,4.307080805E-2,1.052841991E-1
1.729389417E1,-9.958928108E0,4.307080805E-2,1.244267747E-1
1.730358031E1,-9.997213364E0,3.828516230E-2,1.100698411E-1
1.731326620E1,-9.963713646E0,5.742774159E-2,1.196411327E-1
1.732295182E1,-9.973284721E0,3.828516230E-2,1.244267747E-1
1.733263839E1,-9.973284721E0,4.785645381E-2,1.148554832E-1
1.734232375E1,-9.958928108E0,5.264209956E-2,1.292124242E-1
1.735200995E1,-9.973284721E0,4.307080805E-2,1.196411327E-1
1.736169609E1,-9.963713646E0,5.264209956E-2,1.052841991E-1
1.737138307E1,-9.958928108E0,6.221338734E-2,1.244267747E-1
1.738106849E1,-9.963713646E0,5.264209956E-2,1.100698411E-1
1.739075490E1,-9.968499184E0,3.349951655E-2,1.100698411E-1
1.740044094E1,-9.978070259E0,5.264209956E-2,1.100698411E-1
1.741012724E1,-9.978070259E0,6.221338734E-2,1.052841991E-1
1.741981323E1,-9.968499184E0,3.349951655E-2,1.196411327E-1
1.742949776E1,-9.978070259E0,3.349951655E-2,1.148554832E-1
1.743918354E1,-9.958928108E0,5.264209956E-2,1.196411327E-1
1.744886922E1,-9.978070259E0,3.349951655E-2,1.196411327E-1
1.745855526E1,-9.968499184E0,4.785645381E-2,1.004985496E-1
1.746824057E1,-9.968499184E0,4.307080805E-2,1.100698411E-1
1.747792521E1,-9.992427826E0,4.307080805E-2,1.244267747E-1
1.748760979E1,-9.963713646E0,4.785645381E-2,1.100698411E-1
1.749729464E1,-9.949356079E0,5.742774159E-2,1.148554832E-1
1.750698104E1,-9.973284721E0,4.785645381E-2,1.052841991E-1
1.751666641E1,-9.968499184E0,4.307080805E-2,1.148554832E-1
1.752635276E1,-9.973284721E0,4.307080805E-2,1.052841991E-1
1.753603792E1,-9.978070259E0,3.828516230E-2,1.100698411E-1
1.754572323E1,-9.973284721E0,1.914258115E-2,1.100698411E-1
1.755540927E1,-9.973284721E0,4.307080805E-2,1.196411327E-1
1.756509375E1,-9.963713646E0,4.785645381E-2,9.092725813E-2
1.757477797E1,-9.968499184E0,5.264209956E-2,1.148554832E-1
1.758446438E1,-9.963713646E0,5.264209956E-2,1.052841991E-1
1.759415000E1,-9.968499184E0,2.392822690E-2,1.052841991E-1
1.760383448E1,-9.973284721E0,4.307080805E-2,1.100698411E-1
1.761351990E1,-9.987641335E0,4.307080805E-2,1.100698411E-1
1.762320620E1,-9.963713646E0,4.307080805E-2,1.100698411E-1
1.763289042E1,-9.973284721E0,3.349951655E-2,1.052841991E-1
1.764257615E1,-9.978070259E0,4.785645381E-2,1.148554832E-1
1.765226104E1,-9.968499184E0,4.785645381E-2,1.100698411E-1
1.766194662E1,-9.968499184E0,4.307080805E-2,1.100698411E-1
1.767163214E1,-9.978070259E0,4.307080805E-2,1.196411327E-1
1.768131734E1,-9.987641335E0,4.785645381E-2,1.196411327E-1
1.769100214E1,-9.973284721E0,2.871387079E-2,1.196411327E-1
1.770068828E1,-9.968499184E0,3.828516230E-2,1.100698411E-1
1.771037474E1,-9.973284721E0,5.264209956E-2,1.148554832E-1
1.772006099E1,-9.963713646E0,1.914258115E-2,1.148554832E-1
1.772974688E1,-9.973284721E0,4.307080805E-2,1.148554832E-1
1.773943198E1,-9.973284721E0,3.349951655E-2,1.004985496E-1
1.774911849E1,-9.982855797E0,3.828516230E-2,1.148554832E-1
1.775880542E1,-9.963713646E0,4.307080805E-2,1.148554832E-1
1.776848948E1,-9.958928108E0,2.871387079E-2,1.196411327E-1
1.777817438E1,-9.963713646E0,3.828516230E-2,1.100698411E-1
1.778785912E1,-9.963713646E0,4.307080805E-2,1.244267747E-1
1.779754344E1,-9.963713646E0,4.785645381E-2,1.148554832E-1
1.780722833E1,-9.982855797E0,3.349951655E-2,1.004985496E-1
1.781691412E1,-9.982855797E0,6.221338734E-2,1.100698411E-1
1.782660036E1,-9.963713646E0,5.742774159E-2,1.148554832E-1
1.783628636E1,-9.963713646E0,2.392822690E-2,1.052841991E-1
1.784597177E1,-9.978070259E0,7.178468257E-2,1.196411327E-1
1.785565714E1,-9.978070259E0,3.828516230E-2,1.196411327E-1
1.786534344E1,-9.968499184E0,3.828516230E-2,1.100698411E-1
1.787502859E1,-9.978070259E0,3.828516230E-2,1.244267747E-1
1.788471297E1,-9.963713646E0,3.828516230E-2,1.196411327E-1
1.789439792E1,-9.963713646E0,3.349951655E-2,1.100698411E-1
1.790408266E1,-9.963713646E0,4.307080805E-2,1.148554832E-1
1.791376771E1,-9.982855797E0,3.349951655E-2,1.148554832E-1
1.792345198E1,-9.973284721E0,5.742774159E-2,1.148554832E-1
1.793313651E1,-9.963713646E0,4.785645381E-2,1.100698411E-1
1.794282125E1,-9.968499184E0,5.264209956E-2,1.052841991E-1
1.795250708E1,-9.973284721E0,5.264209956E-2,1.244267747E-1
1.796219229E1,-9.982855797E0,3.349951655E-2,1.100698411E-1
1.797187641E1,-9.968499184E0,5.264209956E-2,1.196411327E-1
1.798156026E1,-9.968499184E0,2.871387079E-2,1.244267747E-1
1.799124630E1,-9.968499184E0,3.349951655E-2,1.148554832E-1
1.800093245E1,-9.968499184E0,5.264209956E-2,1.148554832E-1
1.801061740E1,-9.963713646E0,3.349951655E-2,1.196411327E-1
1.802030406E1,-9.973284721E0,3.828516230E-2,1.196411327E-1
1.802999042E1,-9.973284721E0,5.264209956E-2,1.292124242E-1
1.803967557E1,-9.978070259E0,5.742774159E-2,1.196411327E-1
1.804936167E1,-9.958928108E0,4.307080805E-2,1.196411327E-1
1.805904833E1,-9.973284721E0,5.264209956E-2,1.244267747E-1
1.806873266E1,-9.963713646E0,5.264209956E-2,1.196411327E-1
1.807841688E1,-9.958928108E0,2.392822690E-2,1.244267747E-1
1.808810224E1,-9.973284721E0,5.742774159E-2,1.196411327E-1
1.809778771E1,-9.968499184E0,4.785645381E-2,1.100698411E-1
1.810747198E1,-9.978070259E0,3.349951655E-2,1.244267747E-1
1.811715776E1,-9.968499184E0,4.785645381E-2,1.148554832E-1
1.812684396E1,-9.973284721E0,3.828516230E-2,1.100698411E-1
1.813652984E1,-9.978070259E0,2.871387079E-2,1.244267747E-1
1.814621641E1,-9.958928108E0,3.349951655E-2,1.339980662E-1
1.815590302E1,-9.963713646E0,3.828516230E-2,1.244267747E-1
1.816558854E1,-9.963713646E0,5.264209956E-2,1.100698411E-1
1.817527443E1,-9.963713646E0,4.307080805E-2,1.244267747E-1
1.818496068E1,-9.968499184E0,4.307080805E-2,1.196411327E-1
1.819464703E1,-9.963713646E0,5.264209956E-2,1.100698411E-1
1.820433344E1,-9.968499184E0,6.221338734E-2,1.148554832E-1
1.821401990E1,-9.968499184E0,5.742774159E-2,1.100698411E-1
1.822370656E1,-9.978070259E0,4.785645381E-2,1.196411327E-1
1.823339479E1,-9.963713646E0,3.828516230E-2,1.100698411E-1
1.824308063E1,-9.968499184E0,4.307080805E-2,1.148554832E-1
1.825276667E1,-9.973284721E0,4.785645381E-2,1.244267747E-1
1.826245276E1,-9.963713646E0,4.307080805E-2,1.244267747E-1
1.827213823E1,-9.978070259E0,4.785645381E-2,1.148554832E-1
1.828182208E1,-9.968499184E0,4.785645381E-2,1.148554832E-1
1.829150698E1,-9.973284721E0,5.742774159E-2,1.196411327E-1
1.830119240E1,-9.973284721E0,4.307080805E-2,1.196411327E-1
1.831087823E1,-9.973284721E0,4.307080805E-2,1.196411327E-1
1.832056219E1,-9.958928108E0,4.785645381E-2,1.100698411E-1
1.833024818E1,-9.973284721E0,3.828516230E-2,1.052841991E-1
1.833993365E1,-9.982855797E0,4.307080805E-2,1.196411327E-1
1.834961943E1,-9.973284721E0,4.307080805E-2,1.196411327E-1
1.835930672E1,-9.973284721E0,3.828516230E-2,1.148554832E-1
1.836899292E1,-9.968499184E0,3.828516230E-2,1.148554832E-1
1.837867880E1,-9.973284721E0,4.785645381E-2,1.148554832E-1
1.838836531E1,-9.978070259E0,4.785645381E-2,1.148554832E-1
1.839805172E1,-9.963713646E0,4.307080805E-2,1.148554832E-1
1.840773828E1,-9.973284721E0,4.785645381E-2,1.052841991E-1
1.841742349E1,-9.982855797E0,5.742774159E-2,1.148554832E-1
1.842710844E1,-9.958928108E0,4.307080805E-2,1.148554832E-1
1.843679365E1,-9.958928108E0,4.307080805E-2,1.196411327E-1
1.844648047E1,-9.973284721E0,5.264209956E-2,1.196411327E-1
1.845616651E1,-9.968499184E0,4.785645381E-2,1.100698411E-1
1.846585245E1,-9.978070259E0,3.828516230E-2,1.339980662E-1
1.847553807E1,-9.973284721E0,5.264209956E-2,1.052841991E-1
1.848522396E1,-9.973284721E0,2.871387079E-2,1.100698411E-1
1.849490974E1,-9.978070259E0,4.307080805E-2,1.196411327E-1
1.850459453E1,-9.973284721E0,3.349951655E-2,1.244267747E-1
1.851428021E1,-9.968499184E0,5.264209956E-2,1.148554832E-1
1.852396599E1,-9.978070259E0,4.785645381E-2,1.148554832E-1
1.853365240E1,-9.973284721E0,5.264209956E-2,1.148554832E-1
1.854333672E1,-9.982855797E0,4.307080805E-2,1.244267747E-1
1.855302287E1,-9.963713646E0,6.221338734E-2,1.148554832E-1
1.856270995E1,-9.973284721E0,3.828516230E-2,1.339980662E-1
1.857239547E1,-9.987641335E0,4.785645381E-2,1.196411327E-1
1.858208104E1,-9.982855797E0,3.349951655E-2,1.196411327E-1
1.859176734E1,-9.973284721E0,3.349951655E-2,1.148554832E-1
1.860145281E1,-9.973284721E0,4.307080805E-2,1.100698411E-1
1.861113875E1,-9.963713646E0,5.264209956E-2,1.196411327E-1
1.862082542E1,-9.973284721E0,4.785645381E-2,1.244267747E-1
1.863051302E1,-9.968499184E0,3.828516230E-2,1.100698411E-1
1.864020063E1,-9.973284721E0,3.828516230E-2,1.148554832E-1
1.864988729E1,-9.973284721E0,2.871387079E-2,1.244267747E-1
1.865957057E1,-9.982855797E0,3.349951655E-2,1.244267747E-1
1.866925630E1,-9.973284721E0,4.307080805E-2,1.244267747E-1
1.867894266E1,-9.978070259E0,3.828516230E-2,1.100698411E-1
1.868862854E1,-9.973284721E0,4.307080805E-2,1.148554832E-1
1.869831391E1,-9.958928108E0,3.828516230E-2,1.196411327E-1
1.870799875E1,-9.978070259E0,4.785645381E-2,1.148554832E-1
1.871768386E1,-9.982855797E0,5.264209956E-2,1.100698411E-1
1.872736979E1,-9.968499184E0,5.264209956E-2,1.148554832E-1
1.873705536E1,-9.963713646E0,5.264209956E-2,1.148554832E-1
1.874674214E1,-9.978070259E0,1.914258115E-2,1.196411327E-1
1.875642677E1,-9.978070259E0,4.307080805E-2,1.292124242E-1
1.876611224E1,-9.978070259E0,3.349951655E-2,1.196411327E-1
1.877579766E1,-9.973284721E0,6.221338734E-2,1.100698411E-1
1.878548432E1,-9.973284721E0,4.307080805E-2,1.100698411E-1
1.879516990E1,-9.978070259E0,4.307080805E-2,1.100698411E-1
1.880485630E1,-9.973284721E0,3.828516230E-2,1.148554832E-1
1.881454307E1,-9.982855797E0,3.828516230E-2,1.196411327E-1
1.882422932E1,-9.968499184E0,4.307080805E-2,1.148554832E-1
1.883391542E1,-9.973284721E0,2.871387079E-2,1.196411327E-1
1.884360120E1,-9.982855797E0,3.349951655E-2,1.100698411E-1
1.885328677E1,-9.968499184E0,4.785645381E-2,1.148554832E-1
1.886297219E1,-9.968499184E0,3.828516230E-2,1.052841991E-1
1.887265745E1,-9.982855797E0,4.307080805E-2,1.292124242E-1
1.888234328E1,-9.963713646E0,5.264209956E-2,1.100698411E-1
1.889202984E1,-9.992427826E0,4.307080805E-2,1.148554832E-1
1.890171604E1,-9.992427826E0,3.349951655E-2,1.196411327E-1
1.891140151E1,-9.978070259E0,4.307080805E-2,1.196411327E-1
1.892108693E1,-9.978070259E0,4.785645381E-2,1.100698411E-1
1.893077151E1,-9.968499184E0,4.307080805E-2,1.196411327E-1
1.894045641E1,-9.982855797E0,3.349951655E-2,1.052841991E-1
1.895014302E1,-9.958928108E0,6.221338734E-2,1.004985496E-1
1.895982802E1,-9.954142570E0,3.828516230E-2,1.292124242E-1
1.896951193E1,-9.968499184E0,2.871387079E-2,1.148554832E-1
1.897919563E1,-9.973284721E0,3.828516230E-2,1.100698411E-1
1.898888156E1,-9.982855797E0,3.349951655E-2,1.196411327E-1
1.899856708E1,-9.963713646E0,4.785645381E-2,1.244267747E-1
1.900825297E1,-9.973284721E0,5.264209956E-2,1.100698411E-1
1.901793922E1,-9.982855797E0,5.264209956E-2,1.148554832E-1
1.902762380E1,-9.982855797E0,4.307080805E-2,1.292124242E-1
1.903730927E1,-9.978070259E0,5.264209956E-2,1.148554832E-1
1.904699307E1,-9.968499184E0,3.828516230E-2,1.100698411E-1
1.905667938E1,-9.973284721E0,5.742774159E-2,1.196411327E-1
1.906636511E1,-9.973284721E0,5.264209956E-2,1.196411327E-1
1.907604859E1,-9.982855797E0,4.307080805E-2,1.004985496E-1
1.908573526E1,-9.968499184E0,4.785645381E-2,1.148554832E-1
1.909542151E1,-9.973284721E0,4.307080805E-2,1.100698411E-1
1.910510740E1,-9.978070259E0,4.785645381E-2,1.148554832E-1
1.911479292E1,-9.978070259E0,3.828516230E-2,1.244267747E-1
1.912447771E1,-9.982855797E0,2.871387079E-2,1.148554832E-1
1.913416412E1,-9.973284721E0,3.828516230E-2,1.100698411E-1
1.914385031E1,-9.978070259E0,4.785645381E-2,1.244267747E-1
1.915353651E1,-9.963713646E0,4.307080805E-2,1.052841991E-1
1.916322219E1,-9.973284721E0,4.785645381E-2,1.148554832E-1
1.917290844E1,-9.973284721E0,4.307080805E-2,1.196411327E-1
1.918259500E1,-9.992427826E0,3.349951655E-2,1.244267747E-1
1.919228078E1,-9.968499184E0,5.264209956E-2,1.148554832E-1
1.920196500E1,-9.958928108E0,4.785645381E-2,1.100698411E-1
1.921165136E1,-9.954142570E0,5.742774159E-2,1.100698411E-1
1.922133787E1,-9.973284721E0,4.785645381E-2,1.004985496E-1
1.923102339E1,-9.973284721E0,2.871387079E-2,1.100698411E-1
1.924070703E1,-9.973284721E0,4.785645381E-2,1.148554832E-1
1.925039162E1,-9.978070259E0,2.871387079E-2,1.100698411E-1
1.926007667E1,-9.978070259E0,2.392822690E-2,1.196411327E-1
1.926976396E1,-9.968499184E0,5.742774159E-2,1.100698411E-1
1.927945073E1,-9.982855797E0,4.785645381E-2,1.148554832E-1
1.928913542E1,-9.978070259E0,4.307080805E-2,1.196411327E-1
1.929882021E1,-9.973284721E0,4.785645381E-2,1.100698411E-1
1.930850578E1,-9.973284721E0,3.828516230E-2,1.148554832E-1
1.931819115E1,-9.973284721E0,3.349951655E-2,1.100698411E-1
1.932787740E1,-9.963713646E0,2.392822690E-2,1.196411327E-1
1.933756234E1,-9.963713646E0,3.349951655E-2,1.100698411E-1
1.934724891E1,-9.973284721E0,2.871387079E-2,1.052841991E-1
1.935693573E1,-9.954142570E0,3.828516230E-2,1.244267747E-1
1.936662120E1,-9.963713646E0,4.307080805E-2,1.196411327E-1
1.937630786E1,-9.978070259E0,4.307080805E-2,1.148554832E-1
1.938599349E1,-9.958928108E0,3.828516230E-2,1.148554832E-1
1.939567896E1,-9.978070259E0,3.349951655E-2,1.148554832E-1
1.940536474E1,-9.968499184E0,2.871387079E-2,1.196411327E-1
1.941505047E1,-9.973284721E0,5.264209956E-2,1.004985496E-1
1.942473755E1,-9.973284721E0,3.828516230E-2,1.196411327E-1
1.943442271E1,-9.968499184E0,3.349951655E-2,1.148554832E-1
1.944410662E1,-9.968499184E0,2.871387079E-2,1.292124242E-1
1.945379323E1,-9.973284721E0,4.307080805E-2,1.196411327E-1
1.946347776E1,-9.963713646E0,4.785645381E-2,1.100698411E-1
1.947316380E1,-9.968499184E0,6.221338734E-2,1.244267747E-1
1.948284849E1,-9.963713646E0,3.349951655E-2,1.100698411E-1
1.949253464E1,-9.968499184E0,5.264209956E-2,1.100698411E-1
1.950221979E1,-9.963713646E0,2.871387079E-2,1.244267747E-1
1.951190427E1,-9.968499184E0,3.349951655E-2,1.339980662E-1
1.952159042E1,-9.968499184E0,4.785645381E-2,1.196411327E-1
1.953127630E1,-9.968499184E0,5.742774159E-2,1.148554832E-1
1.954096182E1,-9.973284721E0,3.349951655E-2,1.100698411E-1
1.955064781E1,-9.963713646E0,4.307080805E-2,1.196411327E-1
1.956033349E1,-9.968499184E0,4.785645381E-2,1.100698411E-1
1.957002021E1,-9.968499184E0,5.264209956E-2,1.148554832E-1
1.957970557E1,-9.973284721E0,5.742774159E-2,1.148554832E-1
1.958939073E1,-9.978070259E0,2.392822690E-2,9.092725813E-2
1.959907708E1,-9.982855797E0,3.828516230E-2,1.196411327E-1
1.960876193E1,-9.963713646E0,4.785645381E-2,1.292124242E-1
1.961844615E1,-9.973284721E0,5.264209956E-2,1.244267747E-1
1.962812906E1,-9.968499184E0,4.785645381E-2,1.052841991E-1
1.963781495E1,-9.973284721E0,3.349951655E-2,1.148554832E-1
1.964749990E1,-9.973284721E0,3.349951655E-2,1.052841991E-1
1.965718505E1,-9.982855797E0,3.349951655E-2,1.052841991E-1
1.966686984E1,-9.978070259E0,3.828516230E-2,1.148554832E-1
1.967655474E1,-9.963713646E0,4.307080805E-2,1.196411327E-1
1.968624068E1,-9.968499184E0,4.785645381E-2,1.148554832E-1
1.969592542E1,-9.982855797E0,3.349951655E-2,1.052841991E-1
1.970561167E1,-9.968499184E0,5.264209956E-2,1.148554832E-1
1.971529604E1,-9.973284721E0,4.307080805E-2,1.100698411E-1
1.972498099E1,-9.992427826E0,3.828516230E-2,1.148554832E-1
1.973466656E1,-9.968499184E0,4.785645381E-2,1.148554832E-1
1.974435208E1,-9.963713646E0,4.307080805E-2,1.196411327E-1
