"Time (s)","Acceleration x (m/s^2)","Acceleration y (m/s^2)","Acceleration z (m/s^2)"
4.180338700E-2,2.081755638E0,-3.254238665E-1,9.504291534E0
5.149015800E-2,2.139183521E0,-3.206382394E-1,9.480362892E0
6.117651200E-2,2.100898266E0,-2.967100143E-1,9.537791252E0
7.086411700E-2,1.971685886E0,-1.100698411E-1,9.595218658E0
8.055036700E-2,1.856830359E0,6.699903309E-2,9.647860527E0
9.023677300E-2,1.785045743E0,1.674975902E-1,9.681360245E0
9.992271000E-2,1.765903115E0,2.057827413E-1,9.734002113E0
1.096094810E-1,1.804188251E0,1.722832322E-1,9.710074425E0
1.192953670E-1,1.842473388E0,8.135596663E-2,9.705288887E0
1.289813560E-1,1.885544300E0,3.349951655E-2,9.719645500E0
1.386667730E-1,1.899901152E0,2.392822690E-2,9.695717812E0
1.483542210E-1,1.871187329E0,4.785645381E-2,9.638289452E0
1.580423460E-1,1.871187329E0,5.742774159E-2,9.623932838E0
1.677297420E-1,1.866401672E0,7.178468257E-2,9.657432556E0
1.774172940E-1,1.818545222E0,1.339980662E-1,9.729216576E0
1.871041170E-1,1.904686809E0,2.392822690E-2,9.801001549E0
1.967927100E-1,1.909472466E0,2.871387079E-2,9.724431038E0
2.064785960E-1,1.837687731E0,1.435693651E-1,9.647860527E0
2.161654190E-1,1.761117458E0,2.344966233E-1,9.829715729E0
2.258521890E-1,1.847259045E0,1.100698411E-1,1.012164021E1
2.355380750E-1,1.938186288E0,-2.392822690E-2,1.022692394E1
2.452247420E-1,2.048256159E0,-1.435693651E-1,1.017906761E1
2.549107310E-1,2.167897224E0,-3.397808075E-1,1.017428207E1
2.645971890E-1,2.297109842E0,-4.594219327E-1,9.978070259E0
2.742847420E-1,2.469393015E0,-4.354937077E-1,1.001156998E1
2.839699500E-1,2.632104874E0,-3.637090325E-1,1.013599682E1
2.936550020E-1,2.163111687E0,-2.201396823E-1,8.824729919E0
3.033407310E-1,1.646261930E0,2.009970993E-1,8.465806961E0
3.130256790E-1,1.746760488E0,7.896314859E-1,9.781859398E0
3.227119290E-1,1.698904037E0,8.997012973E-1,1.007856941E1
3.323972940E-1,1.919043779E0,5.647061467E-1,1.060020447E1
3.420836480E-1,2.230110645E0,2.344966233E-1,1.042313576E1
3.517693770E-1,2.392822742E0,2.440679073E-1,1.002592659E1
3.614559390E-1,2.416750908E0,5.599204898E-1,9.413364410E0
3.711425540E-1,2.311466694E0,7.465606928E-1,8.685946465E0
3.808290640E-1,2.273181438E0,7.944171429E-1,8.982656479E0
3.905159390E-1,2.311466694E0,7.896314859E-1,9.925428391E0
4.002019290E-1,2.383251429E0,8.374879360E-1,1.045184898E1
4.098878670E-1,2.402393818E0,8.662018180E-1,1.043749237E1
4.195725540E-1,2.306680918E0,9.427721500E-1,1.010249710E1
4.292594290E-1,2.191825628E0,1.009771109E0,1.002592659E1
4.389463560E-1,1.871187329E0,1.148554921E0,9.992427826E0
4.486325540E-1,1.368694544E0,1.220339537E0,1.046142101E1
4.583194290E-1,9.140582681E-1,1.339980721E0,1.084427261E1
4.680041170E-1,6.412764788E-1,1.454836130E0,1.110269737E1
4.776893770E-1,4.067798555E-1,1.588834286E0,1.158604717E1
4.873759390E-1,2.297109663E-1,1.679761529E0,1.212682533E1
4.970616690E-1,4.307080805E-2,1.627119422E0,1.222253799E1
5.067477620E-1,-7.178468257E-2,1.588834286E0,1.182532978E1
5.164337520E-1,-1.435693651E-1,1.493121386E0,1.150947666E1
5.261205230E-1,-2.201396823E-1,1.440479279E0,1.140897846E1
5.358076060E-1,-2.536391914E-1,1.392622828E0,1.117448139E1
5.454940120E-1,-1.531406492E-1,1.445264935E0,1.124626637E1
5.551789600E-1,9.571290761E-2,1.392622828E0,1.146162033E1
5.648648980E-1,2.105683982E-1,1.368694544E0,1.091127110E1
5.745504190E-1,2.440679073E-1,1.316052437E0,1.064806080E1
5.842364600E-1,2.105683982E-1,8.518448472E-1,1.045184898E1
5.939242210E-1,1.531406492E-1,3.349951804E-1,1.020299530E1
6.036123460E-1,2.871387079E-2,2.632105052E-1,9.844072342E0
6.132987520E-1,-1.339980662E-1,3.876372576E-1,9.801001549E0
6.229858350E-1,-2.919243574E-1,3.637090325E-1,9.748359680E0
6.326744810E-1,-1.962114573E-1,1.962114573E-1,9.518648148E0
6.423617730E-1,2.871387079E-2,1.196411327E-1,9.413364410E0
6.520487520E-1,1.531406492E-1,5.264209956E-2,9.202795982E0
6.617355230E-1,1.292124242E-1,-9.092725813E-2,8.958727837E0
6.714226060E-1,0.000000000E0,-2.392822653E-1,8.800801277E0
6.811089080E-1,-1.627119333E-1,-2.967100143E-1,8.714659691E0
6.907955230E-1,-3.254238665E-1,-2.871387303E-1,8.748159409E0
7.004824500E-1,-4.737788737E-1,-2.440679073E-1,8.676374435E0
7.101672420E-1,-3.876372576E-1,-4.163511395E-1,8.327022552E0
7.198534920E-1,2.775674164E-1,-1.148554921E0,6.809973240E0
7.295401580E-1,-2.871387303E-1,-2.297109663E-1,7.374679565E0
7.392278670E-1,1.435693540E-2,-1.387837082E-1,6.920042992E0
7.489154190E-1,4.259224236E-1,-3.828516304E-1,6.398407936E0
7.586018250E-1,-6.173482537E-1,6.987041831E-1,8.556734085E0
7.682898460E-1,-6.317051649E-1,9.284151793E-1,9.705288887E0
7.779777100E-1,-1.086341500E0,1.234696507E0,1.069591713E1
7.876655750E-1,-1.933400750E0,1.253839016E0,1.056191921E1
7.973525540E-1,-1.282552958E0,9.427721500E-1,1.015513897E1
8.070400540E-1,-6.699903607E-1,1.914258152E-1,1.032742214E1
8.167257310E-1,-1.004985452E0,-5.647061467E-1,9.791430473E0
8.264123460E-1,-1.210768223E0,-2.871387303E-1,8.829515457E0
8.360984390E-1,1.148554832E-1,-8.949156404E-1,8.011170387E0
8.457846370E-1,1.282552958E0,-1.435693622E0,7.427321434E0
8.554716690E-1,4.019941986E-1,1.244267821E0,7.824530125E0
8.651594810E-1,-8.374879360E-1,2.770888567E0,9.734002113E0
8.748463040E-1,-1.325623751E0,1.727617979E0,1.148076344E1
8.845330230E-1,-1.182054400E0,3.349951804E-1,1.059063339E1
8.942198980E-1,-1.239482164E0,5.455635786E-1,9.322437286E0
9.039063040E-1,-1.478764415E0,1.004985452E0,9.164510727E0
9.135930750E-1,-1.268195987E0,2.919243574E-1,9.848857880E0
9.232790120E-1,-1.148554921E0,-5.024927258E-1,1.043270683E1
9.329658350E-1,-1.306481123E0,-4.594219327E-1,1.048534870E1
9.426523980E-1,-1.598405480E0,-3.254238665E-1,1.069591713E1
9.523382310E-1,-1.828116536E0,-8.614161611E-2,1.147597694E1
9.620247420E-1,-1.593619823E0,-4.307080805E-2,1.238525009E1
9.717119290E-1,-1.646261930E0,3.014956415E-1,1.271067429E1
9.813987520E-1,-1.813759565E0,7.848458290E-1,1.234696484E1
9.910856270E-1,-2.306680918E0,1.335195065E0,1.248096275E1
1.000772658E0,-2.120040894E0,1.421336651E0,1.187318611E1
1.010458544E0,-1.799402595E0,1.320838094E0,1.090170002E1
1.020145002E0,-1.517049551E0,1.545763373E0,9.542576790E0
1.029832033E0,-9.044869542E-1,1.392622828E0,8.365307808E0
1.039518648E0,-1.339980662E-1,6.412764788E-1,7.858029366E0
1.049205835E0,-1.722832322E-1,5.934200287E-1,7.609176159E0
1.058893908E0,-1.004985496E-1,5.599204898E-1,8.298309326E0
1.068580939E0,-1.004985496E-1,7.657032609E-1,8.829515457E0
1.078268023E0,-6.699903309E-2,1.052842021E0,9.671789169E0
1.087955835E0,-3.445664644E-1,1.387837172E0,1.033699417E1
1.097643908E0,-5.647061467E-1,1.708475351E0,1.034177971E1
1.107331877E0,-7.657032609E-1,1.828116536E0,1.014556789E1
1.117020679E0,-8.183453679E-1,1.603191137E0,1.062413216E1
1.126707502E0,-1.057627559E0,1.808973908E0,1.089691448E1
1.136394689E0,-7.369893789E-1,1.612762451E0,1.033699417E1
1.146080783E0,-4.881358147E-1,1.440479279E0,9.293723106E0
1.155768335E0,-2.727817893E-1,1.292124271E0,8.484949112E0
1.165454325E0,-1.387837082E-1,1.148554921E0,7.953742504E0
1.175141981E0,-6.221338734E-2,1.129412293E0,8.035098076E0
1.184829064E0,4.307080805E-2,1.134197950E0,8.504091263E0
1.194516773E0,1.531406492E-1,1.110269666E0,9.375079155E0
1.204204169E0,2.105683982E-1,9.140582681E-1,9.987641335E0
1.213890992E0,2.871387303E-1,6.317051649E-1,9.872786522E0
1.223578439E0,3.445664644E-1,3.302095234E-1,9.480362892E0
1.233265731E0,1.339980662E-1,1.244267747E-1,8.886942863E0
1.242952033E0,1.531406492E-1,1.435693540E-2,8.623732567E0
1.252638752E0,3.062812984E-1,-4.307080805E-2,8.810373306E0
1.262324898E0,4.881358147E-1,-2.536391914E-1,9.413364410E0
1.272010731E0,4.211367965E-1,-3.397808075E-1,1.008335495E1
1.281697033E0,2.201396823E-1,-6.077769399E-1,9.829715729E0
1.291383804E0,3.828516304E-1,-1.330409408E0,1.054277611E1
1.301071617E0,1.818545163E-1,-1.646261930E0,1.137547874E1
1.310758335E0,-1.914258152E-1,-2.057827473E0,1.197846985E1
1.320444117E0,-6.652047038E-1,-2.421536446E0,1.232303619E1
1.330130887E0,-7.130611539E-1,-2.890529871E0,1.379701519E1
1.339818700E0,-1.330409408E0,-2.708675146E0,1.430429363E1
1.349505575E0,-1.172483087E0,-2.914458036E0,1.435214996E1
1.359193283E0,-1.229910851E0,-2.392822742E0,1.378744411E1
1.368880002E0,-9.858429432E-1,-2.172683001E0,1.275374508E1
1.378565835E0,-4.259224236E-1,-1.966900229E0,1.120319557E1
1.388252762E0,-7.178468257E-2,-1.430907965E0,1.003549862E1
1.397940575E0,3.493520916E-1,-7.274180651E-1,9.504291534E0
1.407628492E0,3.541377485E-1,1.483550072E-1,8.470592499E0
1.417316564E0,2.440679073E-1,1.048056364E0,7.704888821E0
1.427002398E0,-7.992027402E-1,1.890329838E0,6.891329288E0
1.436688648E0,-1.076770186E0,2.512463808E0,9.068798065E0
1.446376148E0,2.105683982E-1,1.856830359E0,1.025085258E1
1.456063335E0,7.226324677E-1,1.402194023E0,9.384650230E0
1.465751200E0,1.057627559E0,6.221338734E-2,9.824930191E0
1.475440731E0,9.092726111E-1,-4.019941986E-1,9.915857315E0
1.485128335E0,8.183453679E-1,9.092725813E-2,9.375079155E0
1.494814012E0,1.268195987E0,1.349551916E0,9.351150513E0
1.504500939E0,1.746760488E0,1.593619823E0,9.303294182E0
1.514188075E0,1.804188251E0,1.507478237E0,8.772088051E0
1.523873908E0,2.029113531E0,1.426122308E0,8.427521706E0
1.533560679E0,2.598605394E0,1.182054400E0,8.207381248E0
1.543246929E0,3.192025423E0,6.077769399E-1,8.331808090E0
1.552933908E0,3.326023579E0,5.455635786E-1,8.504091263E0
1.562620002E0,3.359523058E0,8.422735929E-1,8.350951195E0
1.572306721E0,3.838087559E0,9.284151793E-1,8.327022552E0
1.581993075E0,4.579862595E0,1.919043779E0,8.484949112E0
1.591679898E0,4.847858906E0,2.612962246E0,9.025727272E0
1.601366825E0,4.517649174E0,2.656033039E0,9.355937004E0
1.611055106E0,3.713660717E0,2.684746981E0,9.418149948E0
1.620741669E0,3.292523861E0,2.517249346E0,8.786444664E0
1.630426773E0,3.163311481E0,2.488535643E0,8.638090134E0
1.640113804E0,3.359523058E0,2.713460922E0,8.044670105E0
1.649799117E0,3.388236761E0,1.799402595E0,7.135396957E0
1.659484429E0,3.943371773E0,1.339980721E0,7.446464062E0
1.669170106E0,4.019941807E0,4.211367965E-1,7.546962738E0
1.678856304E0,4.488935471E0,-5.742774606E-1,8.164310455E0
1.688543752E0,4.843072891E0,-2.344966233E-1,9.293723106E0
1.698231564E0,4.814359188E0,-5.216353536E-1,8.116454124E0
1.707918596E0,4.871787071E0,-9.332008362E-1,7.192824841E0
1.717604794E0,5.340780258E0,-5.886343718E-1,6.795616150E0
1.727291564E0,5.431707382E0,-1.674975872E0,6.513263226E0
1.736976044E0,5.321637630E0,-2.833101988E0,7.858029366E0
1.746661252E0,5.407779217E0,-3.230310678E0,9.073583603E0
1.756347919E0,5.450850010E0,-2.579462767E0,9.288937569E0
1.766035106E0,5.398207664E0,-2.048256159E0,9.303294182E0
1.775720731E0,5.264209747E0,-1.708475351E0,9.207581520E0
1.785407294E0,5.087141037E0,-1.799402595E0,8.776873589E0
1.795093700E0,5.029713154E0,-2.268395901E0,8.054241180E0
1.804781096E0,4.953142643E0,-2.388036966E0,6.594619274E0
1.814467137E0,4.852644444E0,-2.880958557E0,5.048855782E0
1.824154064E0,4.924428940E0,-4.532006264E0,5.340780258E0
1.833841512E0,5.474778175E0,-4.584648132E0,5.848058701E0
1.843527867E0,6.130411625E0,-5.288137913E0,5.886343479E0
1.853214950E0,6.666403770E0,-5.230710506E0,5.848058701E0
1.862903908E0,6.905686378E0,-5.335994720E0,4.977071285E0
1.872590992E0,6.719046116E0,-5.618347645E0,4.890929699E0
1.882278335E0,6.484549522E0,-5.833701611E0,4.484149456E0
1.891965783E0,5.915057659E0,-6.273981094E0,4.254438877E0
1.901653648E0,5.436492920E0,-4.900500774E0,3.397808075E0
1.911341460E0,4.713860512E0,-5.541777134E0,2.301895380E0
1.921028596E0,5.106283665E0,-7.604390144E0,1.134197950E0
1.930714533E0,5.417350292E0,-8.011170387E0,1.713261008E0
1.940402658E0,5.580062389E0,-7.628318787E0,2.330609322E0
1.950089273E0,5.580062389E0,-7.034898758E0,2.392822742E0
1.959775731E0,5.364708424E0,-6.742974281E0,2.225325108E0
1.969461981E0,5.201996326E0,-7.235895634E0,1.990828395E0
1.979148700E0,5.173282623E0,-7.676175117E0,1.665404558E0
1.988834585E0,5.091926575E0,-8.145168304E0,1.205982566E0
1.998520367E0,4.919643402E0,-8.154739380E0,5.407779217E-1
2.008207242E0,4.867001057E0,-8.417949677E0,3.014956415E-1
2.017894325E0,4.546362877E0,-7.996813297E0,6.317051649E-1
2.027582554E0,4.292723656E0,-7.948956966E0,7.992027402E-1
2.037270002E0,3.986442566E0,-8.504091263E0,6.317051649E-1
2.046956877E0,3.838087559E0,-8.886942863E0,4.498506486E-1
2.056643648E0,3.632304668E0,-9.049654961E0,1.579262912E-1
2.066331356E0,3.354737282E0,-9.308079720E0,-1.292124242E-1
2.076018648E0,3.235096216E0,-9.145368576E0,3.062812984E-1
2.085705575E0,3.201596737E0,-9.207581520E0,1.024128079E0
2.095393439E0,3.168097258E0,-9.518648148E0,1.646261930E0
2.105080002E0,3.249453068E0,-9.652647018E0,1.550549030E0
2.114766981E0,2.890529871E0,-9.882357597E0,-1.124626637E0
2.124453908E0,2.665604353E0,-9.547362328E0,-1.249053478E0
2.134139794E0,2.598605394E0,-9.303294182E0,-1.794616938E0
2.143827658E0,2.483749866E0,-9.480362892E0,-1.182054400E0
2.153514794E0,2.842673302E0,-9.226723671E0,-5.934200287E-1
2.163200731E0,3.053241730E0,-9.456435204E0,4.785645381E-2
2.172888439E0,3.287738323E0,-9.791430473E0,5.694918036E-1
2.182575367E0,3.311666489E0,-1.005464077E1,1.004985496E-1
2.192262137E0,2.952743053E0,-1.002592659E1,-5.647061467E-1
2.201948700E0,2.435893536E0,-9.643074989E0,-1.215553880E0
2.211634012E0,2.134397745E0,-9.485149384E0,-1.296909928E0
2.221320783E0,1.981257200E0,-9.365508080E0,-7.417750359E-1
2.231006825E0,1.076770186E0,-8.953942299E0,1.538106441E1
2.240692867E0,9.858429432E-1,-9.303294182E0,-7.561319470E-1
2.250380106E0,1.411765337E0,-8.705088615E0,-2.593819857E0
2.260066669E0,2.057827473E0,-9.241081238E0,-1.138983607E0
2.269752346E0,2.617748022E0,-9.418149948E0,-8.327022791E-1
2.279439429E0,2.933600664E0,-9.848857880E0,-9.667003751E-1
2.289125835E0,2.952743053E0,-9.987641335E0,-9.858429432E-1
2.298813023E0,2.914458036E0,-1.004506969E1,-8.279166222E-1
2.308500835E0,2.900100946E0,-1.017906761E1,-8.614161611E-1
2.318187033E0,2.718246460E0,-9.863214493E0,-8.422735929E-1
2.327874325E0,2.335394859E0,-9.580862045E0,-9.571290612E-1
2.337561408E0,2.182254314E0,-9.451649666E0,-9.332008362E-1
2.347247606E0,2.067398787E0,-9.422935486E0,-1.167697430E0
2.356935939E0,2.048256159E0,-9.537791252E0,-1.244267821E0
2.366623960E0,1.928615093E0,-9.585647583E0,-1.368694544E0
2.376311304E0,1.770688772E0,-9.614361763E0,-1.588834286E0
2.385998752E0,1.698904037E0,-9.662218094E0,-1.722832322E0
2.395685471E0,1.756331801E0,-9.734002113E0,-1.794616938E0
2.405371617E0,1.775474429E0,-9.829715729E0,-1.574477315E0
2.415057554E0,1.895115495E0,-9.872786522E0,-1.497906923E0
2.424741721E0,1.966900229E0,-9.853643417E0,-1.483550072E0
2.434427189E0,1.497906923E0,-7.202396393E0,-2.230110645E0
2.444112971E0,5.934200287E-1,-9.786644936E0,-1.818545222E0
2.453799429E0,1.119840980E0,-1.106441212E1,-7.130611539E-1
2.463486564E0,1.450050473E0,-1.044706345E1,-1.545763373E0
2.473172137E0,1.383051515E0,-9.954142570E0,-1.655833244E0
2.482858648E0,1.526620865E0,-9.384650230E0,-1.134197950E0
2.492545731E0,1.344766378E0,-9.217152596E0,-1.296909928E0
2.502232346E0,1.071984529E0,-9.059226990E0,-1.335195065E0
2.511918231E0,8.709874153E-1,-9.183652878E0,-1.277767301E0
2.521605419E0,9.762716293E-1,-9.408578873E0,-9.906286001E-1
2.531294064E0,1.186840057E0,-9.815358162E0,-1.004985452E0
2.540980992E0,1.095912814E0,-9.978070259E0,-9.762716293E-1
2.550667710E0,8.566305041E-1,-9.777072906E0,-8.853443861E-1
2.560355783E0,6.699903607E-1,-9.786644936E0,-8.805587292E-1
2.570041669E0,6.029912829E-1,-9.724431038E0,-1.105484009E0
2.579728960E0,4.402793646E-1,-9.652647018E0,-1.129412293E0
2.589415783E0,5.168496966E-1,-9.887143135E0,-9.906286001E-1
2.599103023E0,6.125625968E-1,-9.954142570E0,-1.115055323E0
2.608790002E0,3.972085714E-1,-1.045184898E1,-9.475577474E-1
2.618476929E0,1.531406492E-1,-1.196889877E1,-9.427721500E-1
2.628164221E0,3.445664644E-1,-1.226082325E1,-1.569691658E0
2.637851617E0,3.684946895E-1,-1.140897846E1,-1.741974831E0
2.647538856E0,3.589234054E-1,-1.058106136E1,-1.641476393E0
2.657224846E0,3.684946895E-1,-1.038485050E1,-1.588834286E0
2.666912189E0,3.684946895E-1,-1.036570740E1,-1.488335729E0
2.676599846E0,2.009970993E-1,-1.018385315E1,-1.603191137E0
2.686286669E0,-1.148554832E-1,-9.365508080E0,-1.765903115E0
2.695973023E0,-4.450650215E-1,-9.925428391E0,-1.483550072E0
2.705659117E0,-1.435693651E-1,-9.638289452E0,-9.571290612E-1
2.715344689E0,1.483550072E-1,-9.183652878E0,-1.201196909E0
2.725028908E0,2.392822653E-1,-9.020941734E0,-1.009771109E0
2.734716356E0,2.823530734E-1,-9.437292099E0,-1.105484009E0
2.744402814E0,1.435693651E-1,-9.872786522E0,-1.172483087E0
2.754088804E0,-9.571290575E-3,-1.013599682E1,-1.143769264E0
2.763775575E0,4.785645287E-3,-1.021256733E1,-1.052842021E0
2.773463492E0,6.699903309E-2,-1.012164021E1,-1.043270707E0
2.783147971E0,8.614161611E-2,-9.925428391E0,-8.662018180E-1
2.792833439E0,-5.742774159E-2,-8.767302513E0,-1.421336651E0
2.802519533E0,-4.307080805E-1,-1.141376400E1,-7.992027402E-1
2.812203856E0,-9.571290761E-2,-9.518648148E0,-4.019941986E-1
2.821891200E0,-3.493520916E-1,-9.226723671E0,-7.848458290E-1
2.831577137E0,-6.029912829E-1,-8.982656479E0,-4.259224236E-1
2.841263075E0,-5.982056856E-1,-9.533005714E0,-3.589234054E-1
2.850949117E0,-5.694918036E-1,-1.002592659E1,-4.067798555E-1
2.860634742E0,-5.168496966E-1,-1.024606609E1,-4.546363056E-1
2.870320002E0,-8.039883971E-1,-1.083470058E1,-1.339980662E-1
2.880007189E0,-9.379864931E-1,-9.944570541E0,-1.225125194E0
2.889692710E0,-1.258624673E0,-9.743574142E0,-9.906286001E-1
2.899379064E0,-1.789831281E0,-1.117926693E1,-9.044869542E-1
2.909065210E0,-1.631905079E0,-1.064327526E1,-1.363908887E0
2.918751773E0,-1.751546144E0,-1.077248764E1,-1.378265858E0
2.928438075E0,-1.153340459E0,-1.023649502E1,-1.402194023E0
2.938125523E0,-8.231309652E-1,-9.925428391E0,-9.332008362E-1
2.947811460E0,-6.221339107E-1,-9.939785004E0,-7.274180651E-1
2.957497867E0,-5.790630579E-1,-9.877572060E0,-8.662018180E-1
2.967183387E0,-5.216353536E-1,-9.891928673E0,-9.523434043E-1
2.976870471E0,-2.679961324E-1,-9.370293617E0,-1.301695466E0
2.986557971E0,-7.226324677E-1,-1.100219822E1,-1.497906923E0
2.996244898E0,-1.483550072E-1,-9.504291534E0,-6.125625968E-1
3.005930471E0,-1.866401732E-1,-9.671789169E0,-9.667003751E-1
3.015616669E0,-2.392822690E-2,-9.633503914E0,-8.901300430E-1
3.025301929E0,6.699903309E-2,-9.475577354E0,-6.843472719E-1
3.034988856E0,-2.392822690E-2,-9.834501266E0,-8.614161611E-1
3.044676044E0,1.435693540E-2,-9.820143700E0,-6.221339107E-1
3.054362450E0,-1.435693651E-1,-9.820143700E0,-6.939185858E-1
3.064049273E0,-3.445664644E-1,-9.824930191E0,-1.057627559E0
3.073735314E0,-4.594219327E-1,-9.820143700E0,-9.858429432E-1
3.083420731E0,-4.594219327E-1,-9.820143700E0,-9.523434043E-1
3.093107294E0,-5.359922647E-1,-9.848857880E0,-9.906286001E-1
3.102794689E0,-5.599204898E-1,-9.896714211E0,-1.091127157E0
3.112480314E0,-5.503492355E-1,-9.934999466E0,-1.153340459E0
3.122165783E0,-3.589234054E-1,-9.858428955E0,-9.236295223E-1
3.131851044E0,-2.632105052E-1,-9.853643417E0,-6.077769399E-1
3.141537867E0,-2.919243574E-1,-9.824930191E0,-6.364908218E-1
3.151223335E0,-3.780659735E-1,-9.853643417E0,-7.704889178E-1
3.160909846E0,-3.732803464E-1,-9.844072342E0,-7.513462901E-1
3.170597867E0,-4.689932466E-1,-9.829715729E0,-9.092726111E-1
3.180284221E0,-5.120640397E-1,-9.858428955E0,-9.667003751E-1
3.189970054E0,-5.312066078E-1,-9.853643417E0,-9.427721500E-1
3.199656721E0,-4.737788737E-1,-9.829715729E0,-7.992027402E-1
3.209342867E0,-4.115654826E-1,-9.848857880E0,-7.417750359E-1
3.219029898E0,-4.402793646E-1,-9.853643417E0,-9.906286001E-1
3.228717398E0,-4.594219327E-1,-9.820143700E0,-8.805587292E-1
3.238402346E0,-3.972085714E-1,-9.839286804E0,-5.790630579E-1
3.248089325E0,-4.642075896E-1,-9.863214493E0,-6.604190469E-1
3.257776617E0,-5.024927258E-1,-9.844072342E0,-5.934200287E-1
3.267462710E0,-5.551348329E-1,-9.839286804E0,-7.417750359E-1
3.277148960E0,-5.982056856E-1,-9.877572060E0,-8.518448472E-1
3.286834377E0,-5.216353536E-1,-9.839286804E0,-7.561319470E-1
3.296520679E0,-5.359922647E-1,-9.863214493E0,-8.374879360E-1
3.306205887E0,-5.120640397E-1,-9.844072342E0,-8.518448472E-1
3.315893283E0,-5.072783828E-1,-9.858428955E0,-1.019342422E0
3.325579064E0,-4.785645306E-1,-9.868000984E0,-7.896314859E-1
3.335264533E0,-4.307080805E-1,-9.853643417E0,-6.652047038E-1
3.344950783E0,-5.216353536E-1,-9.824930191E0,-8.039883971E-1
3.354637971E0,-4.977070987E-1,-9.858428955E0,-9.475577474E-1
3.364324481E0,-4.881358147E-1,-9.829715729E0,-8.997012973E-1
3.374010210E0,-4.594219327E-1,-9.820143700E0,-9.714859724E-1
3.383696252E0,-2.584248483E-1,-9.681360245E0,-8.135597110E-1
3.393381617E0,2.153540403E-1,-9.413364410E0,-4.354937077E-1
3.403067658E0,2.009970993E-1,-9.461220741E0,-3.684946895E-1
3.412753439E0,-1.244267747E-1,-9.643074989E0,-6.269195080E-1
3.422440731E0,-4.929214716E-1,-1.003071213E1,-8.614161611E-1
3.432127450E0,-6.891329288E-1,-1.031785107E1,-1.057627559E0
3.441814169E0,-5.790630579E-1,-1.014556789E1,-1.067198873E0
3.451500575E0,-2.775674164E-1,-9.863214493E0,-9.954141974E-1
3.461186564E0,-1.004985496E-1,-9.748359680E0,-7.465606928E-1
3.470871981E0,7.178468257E-2,-9.686145782E0,-4.546363056E-1
3.480558231E0,1.914258152E-1,-9.619147301E0,-5.264210105E-1
3.490246721E0,1.292124242E-1,-9.628718376E0,-5.599204898E-1
3.499934481E0,1.435693651E-1,-9.600004196E0,-6.460621357E-1
3.509621408E0,-3.349951804E-1,-9.844072342E0,-8.901300430E-1
3.519307137E0,-7.992027402E-1,-1.167218876E1,-1.512263894E0
3.528993804E0,4.785645306E-1,-9.274580956E0,-8.470591903E-1
3.538678596E0,-4.785645287E-3,-9.772287369E0,-1.038485050E0
3.548364429E0,-1.483550072E-1,-9.887143135E0,-1.186840057E0
3.558050419E0,-1.387837082E-1,-9.872786522E0,-1.110269666E0
3.567737502E0,1.052841991E-1,-9.700503349E0,-1.354337573E0
3.577425002E0,-4.594219327E-1,-1.024606609E1,-1.081555843E0
3.587111929E0,2.009970993E-1,-9.480362892E0,-7.178468257E-2
3.596798439E0,-2.823530734E-1,-9.987641335E0,-9.954141974E-1
3.606485835E0,5.742774159E-2,-9.585647583E0,-9.092726111E-1
3.616172606E0,6.699903309E-2,-9.777072906E0,-1.004985452E0
3.625859898E0,6.221338734E-2,-9.657432556E0,-6.556333899E-1
3.635546877E0,1.674975902E-1,-9.485149384E0,-4.115654826E-1
3.645232919E0,1.292124242E-1,-9.556933403E0,-5.599204898E-1
3.654920002E0,1.435693540E-2,-9.686145782E0,-6.604190469E-1
3.664605419E0,1.914258115E-2,-9.647860527E0,-7.226324677E-1
3.674291669E0,-1.789831281E0,-1.150469112E1,-2.522035122E0
3.683978387E0,3.158525825E-1,-9.738788605E0,-1.115055323E0
3.693663804E0,-2.488535494E-1,-9.891928673E0,-1.158126116E0
3.703349794E0,-2.057827413E-1,-9.882357597E0,-7.465606928E-1
3.713035783E0,-6.221338734E-2,-9.791430473E0,-4.546363056E-1
3.722722814E0,-1.627119333E-1,-9.858428955E0,-2.775674164E-1
3.732409273E0,-1.531406492E-1,-9.839286804E0,-5.024927258E-1
3.742095939E0,-1.627119333E-1,-9.848857880E0,-4.498506486E-1
3.751782450E0,-1.292124242E-1,-9.829715729E0,-2.488535494E-1
3.761470419E0,-1.387837082E-1,-9.839286804E0,-1.818545163E-1
3.771156669E0,-1.579262912E-1,-9.839286804E0,-1.962114573E-1
3.780842710E0,-1.866401732E-1,-9.882357597E0,-3.972085714E-1
3.790528023E0,-1.531406492E-1,-9.844072342E0,-6.173482537E-1
3.800215314E0,-1.627119333E-1,-9.834501266E0,-6.269195080E-1
3.809903387E0,-1.531406492E-1,-9.824930191E0,-5.024927258E-1
3.819590262E0,-1.483550072E-1,-9.834501266E0,-5.742774606E-1
3.829278596E0,-1.387837082E-1,-9.858428955E0,-8.470591903E-1
3.838967033E0,-1.339980662E-1,-9.834501266E0,-1.081555843E0
3.848654429E0,-1.818545163E-1,-9.877572060E0,-1.617548108E0
3.858342242E0,-1.531406492E-1,-9.863214493E0,-1.885544300E0
3.868030419E0,-1.339980662E-1,-9.853643417E0,-1.718046665E0
3.877718231E0,-1.435693651E-1,-9.844072342E0,-1.512263894E0
3.887406252E0,-1.722832322E-1,-9.877572060E0,-2.158325911E0
3.897094377E0,-2.009970993E-1,-9.911071777E0,-2.751745939E0
3.906782658E0,-3.828516230E-2,-9.777072906E0,-2.536391973E0
3.916468908E0,-1.627119333E-1,-9.887143135E0,-1.813759565E0
3.926155887E0,-1.770688742E-1,-9.834501266E0,-1.272981644E0
3.935843179E0,-9.571290761E-2,-9.791430473E0,-1.048056364E0
3.945530158E0,-1.483550072E-1,-9.824930191E0,-8.327022791E-1
3.955218804E0,-8.135596663E-2,-9.805787086E0,-8.231309652E-1
3.964907502E0,-1.435693651E-1,-9.757930756E0,-2.297109663E-1
3.974595523E0,-3.254238665E-1,-9.944570541E0,1.579262912E-1
3.984282814E0,2.057827413E-1,-9.609575272E0,3.129812002E0
3.993970419E0,-3.014956415E-1,-9.834501266E0,3.014956474E0
4.003657189E0,-2.488535494E-1,-9.920642853E0,-5.168496966E-1
4.013344689E0,-1.722832322E-1,-9.891928673E0,-1.588834286E0
4.023032502E0,-1.531406492E-1,-9.882357597E0,-4.689932466E-1
4.032719273E0,-1.483550072E-1,-9.853643417E0,9.571290575E-3
4.042406408E0,-1.579262912E-1,-9.882357597E0,-3.397808075E-1
4.052092189E0,-1.627119333E-1,-9.882357597E0,-4.402793646E-1
4.061779429E0,-1.627119333E-1,-9.858428955E0,-4.163511395E-1
4.071467606E0,-1.483550072E-1,-9.853643417E0,-3.349951804E-1
4.081153335E0,-2.057827413E-1,-9.896714211E0,-4.498506486E-1
4.090839794E0,-1.052841991E-1,-9.853643417E0,-2.967100143E-1
4.100524950E0,-1.627119333E-1,-9.858428955E0,-4.977070987E-1
4.110212450E0,-1.627119333E-1,-9.872786522E0,-5.312066078E-1
4.119900367E0,-1.483550072E-1,-9.863214493E0,-4.163511395E-1
4.129586669E0,-1.244267747E-1,-9.839286804E0,-2.584248483E-1
4.139272867E0,-1.531406492E-1,-9.858428955E0,-1.914258152E-1
4.148960158E0,-1.387837082E-1,-9.848857880E0,-1.914258152E-1
4.158648335E0,-1.627119333E-1,-9.853643417E0,-4.019941986E-1
4.168336304E0,-1.531406492E-1,-9.839286804E0,-5.790630579E-1
4.178023700E0,-1.531406492E-1,-9.868000984E0,-6.604190469E-1
4.187710992E0,-1.339980662E-1,-9.848857880E0,-8.135597110E-1
4.197396669E0,-1.531406492E-1,-9.863214493E0,-6.508477330E-1
4.207083283E0,-1.339980662E-1,-9.844072342E0,-4.450650215E-1
4.216769377E0,-1.579262912E-1,-9.858428955E0,-3.732803464E-1
4.226456825E0,-1.483550072E-1,-9.844072342E0,-4.689932466E-1
4.236145054E0,-1.339980662E-1,-9.834501266E0,-5.982056856E-1
4.245831356E0,-1.531406492E-1,-9.844072342E0,-7.274180651E-1
4.255518856E0,-1.818545163E-1,-9.853643417E0,-1.024128079E0
4.265205002E0,-1.866401732E-1,-9.848857880E0,-1.397408366E0
4.274891721E0,-1.818545163E-1,-9.853643417E0,-1.651047587E0
4.284578387E0,-1.770688742E-1,-9.863214493E0,-1.627119422E0
4.294265054E0,-1.770688742E-1,-9.872786522E0,-1.239482164E0
4.303949585E0,-1.770688742E-1,-9.863214493E0,-7.800601721E-1
4.313635314E0,-1.722832322E-1,-9.863214493E0,-6.125625968E-1
4.323322919E0,-1.962114573E-1,-9.868000984E0,-6.747759581E-1
4.333010367E0,-1.674975902E-1,-9.853643417E0,-9.140582681E-1
4.342696721E0,-1.339980662E-1,-9.829715729E0,-1.167697430E0
4.352383387E0,-1.339980662E-1,-9.810572624E0,-1.564906001E0
4.362068856E0,-1.100698411E-1,-9.810572624E0,-1.670190215E0
4.371755575E0,-1.148554832E-1,-9.805787086E0,-1.689332843E0
4.381442450E0,-1.244267747E-1,-9.829715729E0,-1.588834286E0
4.391128908E0,-1.435693651E-1,-9.820143700E0,-1.421336651E0
4.400815054E0,-1.579262912E-1,-9.829715729E0,-1.272981644E0
4.410500783E0,-1.531406492E-1,-9.863214493E0,-1.167697430E0
4.420186460E0,-2.536391914E-1,-9.920642853E0,-1.143769264E0
4.429872867E0,-1.483550072E-1,-9.853643417E0,-1.081555843E0
4.439557554E0,-1.483550072E-1,-9.848857880E0,-1.091127157E0
4.449244273E0,-1.483550072E-1,-9.839286804E0,-1.062413216E0
4.458930106E0,-1.674975902E-1,-9.863214493E0,-9.906286001E-1
4.468615992E0,-1.674975902E-1,-9.853643417E0,-9.188438654E-1
4.478302294E0,-1.435693651E-1,-9.848857880E0,-8.183453679E-1
4.487989325E0,-1.483550072E-1,-9.834501266E0,-6.987041831E-1
4.497676304E0,-1.483550072E-1,-9.844072342E0,-5.216353536E-1
4.507361356E0,-1.483550072E-1,-9.853643417E0,-4.115654826E-1
4.517047814E0,-1.579262912E-1,-9.844072342E0,-3.972085714E-1
4.526733856E0,-1.627119333E-1,-9.853643417E0,-4.354937077E-1
4.536421617E0,-1.627119333E-1,-9.848857880E0,-4.402793646E-1
4.546107971E0,-1.674975902E-1,-9.863214493E0,-3.780659735E-1
4.555794846E0,-1.627119333E-1,-9.872786522E0,-3.637090325E-1
4.565481044E0,-1.387837082E-1,-9.858428955E0,-2.249253243E-1
4.575167502E0,-1.387837082E-1,-9.868000984E0,-2.488535494E-1
4.584852867E0,-1.435693651E-1,-9.863214493E0,-2.871387303E-1
4.594538752E0,-1.292124242E-1,-9.868000984E0,-3.302095234E-1
4.604225158E0,-1.339980662E-1,-9.872786522E0,-4.450650215E-1
4.613910679E0,-1.579262912E-1,-9.877572060E0,-5.838487148E-1
4.623595783E0,-1.579262912E-1,-9.872786522E0,-7.465606928E-1
4.633281721E0,-1.531406492E-1,-9.887143135E0,-1.162911773E0
4.642968283E0,-1.722832322E-1,-9.891928673E0,-1.229910851E0
4.652655992E0,-1.627119333E-1,-9.887143135E0,-1.105484009E0
4.662343179E0,-1.531406492E-1,-9.848857880E0,-8.279166222E-1
4.672029950E0,-1.292124242E-1,-9.834501266E0,-2.775674164E-1
4.681716252E0,-1.531406492E-1,-9.839286804E0,2.392822653E-1
4.691403127E0,-9.092725813E-2,-9.829715729E0,1.301695466E0
4.701090158E0,-1.674975902E-1,-9.810572624E0,3.268595695E0
4.710777658E0,-1.674975902E-1,-9.882357597E0,7.896314859E-1
4.720464429E0,-1.579262912E-1,-9.882357597E0,-6.077769399E-1
4.730151929E0,-1.627119333E-1,-9.891928673E0,-2.871387303E-1
4.739840419E0,-4.019941986E-1,-9.757930756E0,3.302095234E-1
4.749526044E0,3.780659735E-1,-9.920642853E0,2.057827413E-1
4.759213700E0,-4.307080805E-1,-9.949356079E0,2.871387079E-2
4.768900575E0,-1.435693651E-1,-9.887143135E0,-0.000000000E0
4.778586981E0,-1.627119333E-1,-9.891928673E0,-9.571290575E-3
4.788274012E0,-1.531406492E-1,-9.882357597E0,-0.000000000E0
4.797960939E0,-1.579262912E-1,-9.887143135E0,-1.435693540E-2
4.807648856E0,-1.387837082E-1,-9.863214493E0,-1.914258115E-2
4.817336825E0,-1.483550072E-1,-9.872786522E0,-9.571290575E-3
4.827022814E0,-1.627119333E-1,-9.872786522E0,-1.435693540E-2
4.836709221E0,-1.292124242E-1,-9.877572060E0,-4.785645287E-3
4.846395314E0,-1.387837082E-1,-9.882357597E0,-9.571290575E-3
4.856081981E0,-1.483550072E-1,-9.882357597E0,-1.914258115E-2
4.865768908E0,-1.627119333E-1,-9.872786522E0,-1.435693540E-2
4.875456408E0,-1.579262912E-1,-9.887143135E0,-9.571290575E-3
4.885143596E0,-1.531406492E-1,-9.877572060E0,-9.571290575E-3
4.894830158E0,-1.579262912E-1,-9.872786522E0,-1.435693540E-2
4.904516877E0,-1.435693651E-1,-9.887143135E0,-1.914258115E-2
4.914204533E0,-1.531406492E-1,-9.872786522E0,-1.914258115E-2
4.923891356E0,-1.483550072E-1,-9.877572060E0,-1.914258115E-2
4.933577398E0,-1.483550072E-1,-9.853643417E0,-0.000000000E0
4.943264533E0,-1.579262912E-1,-9.882357597E0,-1.914258115E-2
4.952951981E0,-1.435693651E-1,-9.877572060E0,-2.392822690E-2
4.962637450E0,-1.579262912E-1,-9.872786522E0,-1.435693540E-2
4.972322398E0,-1.579262912E-1,-9.891928673E0,-9.571290575E-3
4.982007919E0,-1.531406492E-1,-9.868000984E0,-1.914258115E-2
4.991694429E0,-1.770688742E-1,-9.872786522E0,-9.571290575E-3
5.001382242E0,-1.531406492E-1,-9.868000984E0,-9.571290575E-3
5.011069794E0,-1.435693651E-1,-9.882357597E0,-4.785645287E-3
5.020755992E0,-1.339980662E-1,-9.872786522E0,-0.000000000E0
5.030444846E0,-1.579262912E-1,-9.877572060E0,-2.871387079E-2
5.040132658E0,-1.627119333E-1,-9.868000984E0,-9.571290575E-3
5.049819637E0,-1.674975902E-1,-9.877572060E0,-4.785645287E-3
5.059507033E0,-1.339980662E-1,-9.882357597E0,-2.871387079E-2
5.069194169E0,-1.531406492E-1,-9.872786522E0,-1.435693540E-2
5.078880419E0,-1.579262912E-1,-9.872786522E0,-1.435693540E-2
5.088567502E0,-1.339980662E-1,-9.891928673E0,-1.435693540E-2
5.098256096E0,-1.435693651E-1,-9.872786522E0,-9.571290575E-3
5.107943804E0,-1.579262912E-1,-9.853643417E0,-1.435693540E-2
5.117632033E0,-1.435693651E-1,-9.877572060E0,-4.785645287E-3
5.127318752E0,-1.531406492E-1,-9.882357597E0,-2.392822690E-2
5.137005158E0,-1.435693651E-1,-9.872786522E0,-0.000000000E0
5.146691617E0,-1.483550072E-1,-9.877572060E0,-2.392822690E-2
5.156379846E0,-1.531406492E-1,-9.872786522E0,-2.392822690E-2
5.166066981E0,-1.579262912E-1,-9.882357597E0,-1.435693540E-2
5.175754429E0,-1.674975902E-1,-9.872786522E0,-9.571290575E-3
5.185439689E0,-1.435693651E-1,-9.887143135E0,-1.435693540E-2
5.195126721E0,-1.435693651E-1,-9.882357597E0,-9.571290575E-3
5.204813544E0,-1.435693651E-1,-9.882357597E0,-1.435693540E-2
5.214500731E0,-1.579262912E-1,-9.877572060E0,-4.785645287E-3
5.224187554E0,-1.483550072E-1,-9.877572060E0,-9.571290575E-3
5.233874273E0,-1.627119333E-1,-9.882357597E0,-1.435693540E-2
5.243561096E0,-1.579262912E-1,-9.877572060E0,-1.914258115E-2
5.253246877E0,-1.435693651E-1,-9.877572060E0,-1.914258115E-2
5.262934221E0,-1.435693651E-1,-9.882357597E0,-0.000000000E0
5.272620835E0,-1.483550072E-1,-9.863214493E0,-1.435693540E-2
5.282306773E0,-1.483550072E-1,-9.872786522E0,-9.571290575E-3
5.291993335E0,-1.435693651E-1,-9.877572060E0,-2.871387079E-2
5.301680314E0,-1.387837082E-1,-9.872786522E0,-1.435693540E-2
5.311367971E0,-1.627119333E-1,-9.872786522E0,-2.871387079E-2
5.321055314E0,-1.627119333E-1,-9.882357597E0,-0.000000000E0
5.330742398E0,-1.483550072E-1,-9.877572060E0,-0.000000000E0
5.340430002E0,-1.483550072E-1,-9.887143135E0,-1.435693540E-2
5.350116825E0,-1.435693651E-1,-9.887143135E0,-2.392822690E-2
5.359804846E0,-1.339980662E-1,-9.891928673E0,-1.914258115E-2
5.369491564E0,-1.435693651E-1,-9.887143135E0,-1.914258115E-2
5.379178908E0,-1.579262912E-1,-9.887143135E0,-9.571290575E-3
5.388864377E0,-1.435693651E-1,-9.877572060E0,-9.571290575E-3
5.398551773E0,-1.387837082E-1,-9.872786522E0,4.785645287E-3
5.408239481E0,-1.435693651E-1,-9.868000984E0,-3.349951655E-2
5.417926981E0,-1.579262912E-1,-9.858428955E0,-9.571290575E-3
5.427613335E0,-1.531406492E-1,-9.882357597E0,-1.435693540E-2
5.437299221E0,-1.627119333E-1,-9.882357597E0,-3.349951655E-2
5.446986564E0,-1.483550072E-1,-9.882357597E0,-1.914258115E-2
5.456674689E0,-1.339980662E-1,-9.872786522E0,-1.435693540E-2
5.466362606E0,-1.339980662E-1,-9.863214493E0,-2.871387079E-2
5.476049533E0,-1.435693651E-1,-9.863214493E0,-1.435693540E-2
5.485736564E0,-1.435693651E-1,-9.882357597E0,-9.571290575E-3
5.495424273E0,-1.531406492E-1,-9.863214493E0,-9.571290575E-3
5.505111252E0,-1.531406492E-1,-9.882357597E0,4.785645287E-3
5.514799794E0,-1.674975902E-1,-9.877572060E0,-0.000000000E0
5.524486929E0,-1.483550072E-1,-9.863214493E0,-9.571290575E-3
5.534173856E0,-1.435693651E-1,-9.887143135E0,-1.435693540E-2
5.543862710E0,-1.435693651E-1,-9.882357597E0,-1.914258115E-2
5.553549794E0,-1.579262912E-1,-9.882357597E0,-9.571290575E-3
5.563236877E0,-1.579262912E-1,-9.868000984E0,-1.914258115E-2
5.572923856E0,-1.435693651E-1,-9.877572060E0,-1.435693540E-2
5.582611356E0,-1.579262912E-1,-9.896714211E0,-1.435693540E-2
5.592297710E0,-1.483550072E-1,-9.868000984E0,-9.571290575E-3
5.601983856E0,-1.483550072E-1,-9.896714211E0,-1.914258115E-2
5.611669481E0,-1.292124242E-1,-9.868000984E0,9.571290575E-3
5.621355054E0,-1.579262912E-1,-9.872786522E0,-1.435693540E-2
5.631041564E0,-1.387837082E-1,-9.872786522E0,-1.435693540E-2
5.640728596E0,-1.483550072E-1,-9.882357597E0,-9.571290575E-3
5.650415314E0,-1.435693651E-1,-9.872786522E0,-1.435693540E-2
5.660101564E0,-1.579262912E-1,-9.887143135E0,-9.571290575E-3
5.669787085E0,-1.627119333E-1,-9.863214493E0,-0.000000000E0
5.679472710E0,-1.483550072E-1,-9.872786522E0,4.785645287E-3
5.689158960E0,-1.387837082E-1,-9.868000984E0,-1.435693540E-2
5.698845627E0,-1.579262912E-1,-9.877572060E0,-4.785645287E-3
5.708530783E0,-1.387837082E-1,-9.877572060E0,-1.914258115E-2
5.718218544E0,-1.339980662E-1,-9.882357597E0,9.571290575E-3
5.727904898E0,-1.387837082E-1,-9.882357597E0,-9.571290575E-3
5.737592346E0,-1.579262912E-1,-9.877572060E0,-1.914258115E-2
5.747279742E0,-1.531406492E-1,-9.872786522E0,-9.571290575E-3
5.756966981E0,-1.579262912E-1,-9.877572060E0,-1.435693540E-2
5.766653439E0,-1.435693651E-1,-9.872786522E0,-2.392822690E-2
5.776341669E0,-1.483550072E-1,-9.882357597E0,-9.571290575E-3
5.786027606E0,-1.435693651E-1,-9.872786522E0,-9.571290575E-3
5.795715106E0,-1.579262912E-1,-9.882357597E0,-4.785645287E-3
5.805403283E0,-1.483550072E-1,-9.877572060E0,-1.435693540E-2
5.815090731E0,-1.435693651E-1,-9.868000984E0,-9.571290575E-3
5.824777189E0,-1.483550072E-1,-9.872786522E0,-4.785645287E-3
5.834463752E0,-1.579262912E-1,-9.872786522E0,-1.435693540E-2
5.844150679E0,-1.483550072E-1,-9.877572060E0,-9.571290575E-3
5.853836096E0,-1.579262912E-1,-9.863214493E0,-0.000000000E0
5.863522919E0,-1.483550072E-1,-9.868000984E0,-9.571290575E-3
5.873208856E0,-1.531406492E-1,-9.887143135E0,-4.785645287E-3
5.882895731E0,-1.674975902E-1,-9.877572060E0,-1.914258115E-2
5.892582606E0,-1.435693651E-1,-9.882357597E0,-4.785645287E-3
5.902269585E0,-1.244267747E-1,-9.877572060E0,-1.914258115E-2
5.911956981E0,-1.387837082E-1,-9.863214493E0,-1.914258115E-2
5.921643492E0,-1.531406492E-1,-9.877572060E0,-4.785645287E-3
5.931329377E0,-1.483550072E-1,-9.868000984E0,-2.392822690E-2
5.941015731E0,-1.339980662E-1,-9.868000984E0,-0.000000000E0
5.950701981E0,-1.627119333E-1,-9.877572060E0,-2.392822690E-2
5.960389742E0,-1.435693651E-1,-9.877572060E0,-9.571290575E-3
5.970076460E0,-1.339980662E-1,-9.887143135E0,-1.914258115E-2
5.979763908E0,-1.531406492E-1,-9.882357597E0,-1.435693540E-2
5.989450575E0,-1.579262912E-1,-9.868000984E0,-4.785645287E-3
5.999137710E0,-1.435693651E-1,-9.872786522E0,-1.435693540E-2
6.008825002E0,-1.483550072E-1,-9.877572060E0,-9.571290575E-3
6.018512554E0,-1.483550072E-1,-9.872786522E0,4.785645287E-3
6.028199533E0,-1.531406492E-1,-9.872786522E0,-1.914258115E-2
6.037886929E0,-1.627119333E-1,-9.882357597E0,-0.000000000E0
6.047574273E0,-1.579262912E-1,-9.868000984E0,-1.914258115E-2
6.057261981E0,-1.387837082E-1,-9.872786522E0,-4.785645287E-3
6.066950419E0,-1.435693651E-1,-9.877572060E0,-1.914258115E-2
6.076639012E0,-1.627119333E-1,-9.882357597E0,-1.435693540E-2
6.086327658E0,-1.627119333E-1,-9.887143135E0,-1.435693540E-2
6.096014377E0,-1.339980662E-1,-9.858428955E0,-1.914258115E-2
6.105701877E0,-1.531406492E-1,-9.887143135E0,-4.785645287E-3
6.115386721E0,-1.435693651E-1,-9.877572060E0,-1.914258115E-2
6.125071981E0,-1.483550072E-1,-9.877572060E0,-1.435693540E-2
6.134759637E0,-1.435693651E-1,-9.868000984E0,-0.000000000E0
6.144447189E0,-1.531406492E-1,-9.877572060E0,-1.435693540E-2
6.154134846E0,-1.627119333E-1,-9.882357597E0,-4.785645287E-3
6.163821825E0,-1.244267747E-1,-9.872786522E0,9.571290575E-3
6.173510002E0,-1.387837082E-1,-9.853643417E0,-1.435693540E-2
6.183196877E0,-1.483550072E-1,-9.872786522E0,-1.914258115E-2
6.192883231E0,-1.387837082E-1,-9.872786522E0,-1.435693540E-2
6.202569429E0,-1.579262912E-1,-9.872786522E0,-1.435693540E-2
6.212255054E0,-1.435693651E-1,-9.872786522E0,-9.571290575E-3
6.221943960E0,-1.627119333E-1,-9.877572060E0,-9.571290575E-3
6.231630783E0,-1.483550072E-1,-9.858428955E0,-1.435693540E-2
6.241318179E0,-1.531406492E-1,-9.863214493E0,-1.435693540E-2
6.251005783E0,-1.531406492E-1,-9.882357597E0,-9.571290575E-3
6.260692450E0,-1.579262912E-1,-9.877572060E0,-1.435693540E-2
6.270380575E0,-1.531406492E-1,-9.868000984E0,-1.435693540E-2
6.280068804E0,-1.531406492E-1,-9.872786522E0,-4.785645287E-3
6.289756929E0,-1.531406492E-1,-9.868000984E0,-1.435693540E-2
6.299444325E0,-1.579262912E-1,-9.868000984E0,4.785645287E-3
6.309130575E0,-1.435693651E-1,-9.863214493E0,-3.349951655E-2
6.318816721E0,-1.579262912E-1,-9.872786522E0,-9.571290575E-3
6.328504012E0,-1.579262912E-1,-9.887143135E0,-1.914258115E-2
6.338191617E0,-1.435693651E-1,-9.872786522E0,-9.571290575E-3
6.347879585E0,-1.483550072E-1,-9.882357597E0,-1.435693540E-2
6.357565523E0,-1.579262912E-1,-9.882357597E0,-0.000000000E0
6.367252502E0,-1.483550072E-1,-9.872786522E0,-9.571290575E-3
6.376939898E0,-1.387837082E-1,-9.877572060E0,-1.435693540E-2
6.386626200E0,-1.435693651E-1,-9.872786522E0,-2.871387079E-2
6.396312710E0,-1.531406492E-1,-9.868000984E0,-4.785645287E-3
6.405999533E0,-1.531406492E-1,-9.863214493E0,-1.435693540E-2
6.415685523E0,-1.387837082E-1,-9.868000984E0,-2.392822690E-2
6.425372554E0,-1.531406492E-1,-9.872786522E0,-1.914258115E-2
6.435058648E0,-1.483550072E-1,-9.887143135E0,-1.435693540E-2
6.444745939E0,-1.435693651E-1,-9.858428955E0,-1.914258115E-2
6.454433387E0,-1.483550072E-1,-9.877572060E0,-4.785645287E-3
6.464120523E0,-1.435693651E-1,-9.868000984E0,-9.571290575E-3
6.473808960E0,-1.483550072E-1,-9.872786522E0,-4.785645287E-3
6.483495002E0,-1.579262912E-1,-9.882357597E0,-9.571290575E-3
6.493181512E0,-1.483550072E-1,-9.872786522E0,-1.435693540E-2
6.502869169E0,-1.531406492E-1,-9.872786522E0,-1.914258115E-2
6.512556617E0,-1.483550072E-1,-9.882357597E0,-2.392822690E-2
6.522244064E0,-1.339980662E-1,-9.872786522E0,-1.914258115E-2
6.531931564E0,-1.483550072E-1,-9.891928673E0,-9.571290575E-3
6.541617450E0,-1.579262912E-1,-9.863214493E0,-1.435693540E-2
6.551305262E0,-1.579262912E-1,-9.877572060E0,-1.435693540E-2
6.560992398E0,-1.435693651E-1,-9.868000984E0,-0.000000000E0
6.570678648E0,-1.531406492E-1,-9.877572060E0,-9.571290575E-3
6.580367137E0,-1.387837082E-1,-9.887143135E0,-9.571290575E-3
6.590053856E0,-1.483550072E-1,-9.882357597E0,-1.914258115E-2
6.599741825E0,-1.579262912E-1,-9.872786522E0,-4.785645287E-3
6.609429898E0,-1.531406492E-1,-9.877572060E0,-1.914258115E-2
6.619115158E0,-1.292124242E-1,-9.872786522E0,-9.571290575E-3
6.628802971E0,-1.435693651E-1,-9.868000984E0,-1.914258115E-2
6.638491356E0,-1.339980662E-1,-9.896714211E0,-4.785645287E-3
6.648178752E0,-1.579262912E-1,-9.863214493E0,-9.571290575E-3
6.657864950E0,-1.531406492E-1,-9.877572060E0,-1.914258115E-2
6.667553075E0,-1.531406492E-1,-9.877572060E0,-9.571290575E-3
6.677241617E0,-1.435693651E-1,-9.868000984E0,-1.435693540E-2
6.686930679E0,-1.531406492E-1,-9.863214493E0,-4.785645287E-3
6.696618596E0,-1.579262912E-1,-9.877572060E0,-2.392822690E-2
6.706305314E0,-1.579262912E-1,-9.882357597E0,-1.435693540E-2
6.715992606E0,-1.579262912E-1,-9.891928673E0,-2.392822690E-2
6.725680939E0,-1.579262912E-1,-9.877572060E0,-1.914258115E-2
6.735368335E0,-1.435693651E-1,-9.877572060E0,-0.000000000E0
6.745055314E0,-1.339980662E-1,-9.882357597E0,-0.000000000E0
6.754742346E0,-1.579262912E-1,-9.887143135E0,-2.392822690E-2
6.764430575E0,-1.579262912E-1,-9.882357597E0,-9.571290575E-3
6.774117242E0,-1.674975902E-1,-9.882357597E0,-2.392822690E-2
6.783805731E0,-1.387837082E-1,-9.863214493E0,-1.914258115E-2
6.793493804E0,-1.579262912E-1,-9.872786522E0,-4.785645287E-3
6.803180054E0,-1.627119333E-1,-9.887143135E0,-2.392822690E-2
6.812867658E0,-1.531406492E-1,-9.877572060E0,-2.871387079E-2
6.822553231E0,-1.435693651E-1,-9.882357597E0,-4.785645287E-3
6.832241096E0,-1.531406492E-1,-9.882357597E0,-1.914258115E-2
6.841929950E0,-1.435693651E-1,-9.877572060E0,-4.785645287E-3
6.851618127E0,-1.531406492E-1,-9.858428955E0,-9.571290575E-3
6.861307346E0,-1.435693651E-1,-9.872786522E0,-2.871387079E-2
6.870995731E0,-1.387837082E-1,-9.877572060E0,-2.392822690E-2
6.880683596E0,-1.627119333E-1,-9.872786522E0,-2.392822690E-2
6.890371669E0,-1.387837082E-1,-9.887143135E0,-1.914258115E-2
6.900058387E0,-1.483550072E-1,-9.872786522E0,-3.828516230E-2
6.909745262E0,-1.435693651E-1,-9.872786522E0,-2.392822690E-2
6.919432762E0,-1.483550072E-1,-9.868000984E0,-2.392822690E-2
6.929120575E0,-1.483550072E-1,-9.868000984E0,-1.914258115E-2
6.938808648E0,-1.483550072E-1,-9.882357597E0,-1.914258115E-2
6.948495106E0,-1.579262912E-1,-9.863214493E0,-1.914258115E-2
6.958181825E0,-1.483550072E-1,-9.882357597E0,-1.914258115E-2
6.967868544E0,-1.483550072E-1,-9.872786522E0,-2.392822690E-2
6.977556356E0,-1.339980662E-1,-9.891928673E0,-2.392822690E-2
6.987244689E0,-1.387837082E-1,-9.877572060E0,-2.871387079E-2
6.996932346E0,-1.483550072E-1,-9.877572060E0,-2.392822690E-2
7.006619898E0,-1.531406492E-1,-9.891928673E0,-3.349951655E-2
7.016308231E0,-1.579262912E-1,-9.868000984E0,-1.914258115E-2
7.025995679E0,-1.435693651E-1,-9.887143135E0,-4.785645381E-2
7.035683439E0,-1.627119333E-1,-9.872786522E0,-0.000000000E0
7.045371721E0,-1.531406492E-1,-9.882357597E0,-4.785645381E-2
7.055060106E0,-1.579262912E-1,-9.868000984E0,-1.914258115E-2
7.064746096E0,-1.435693651E-1,-9.891928673E0,-2.871387079E-2
7.074433335E0,-1.435693651E-1,-9.872786522E0,-3.349951655E-2
7.084120731E0,-1.435693651E-1,-9.872786522E0,-2.392822690E-2
7.093808752E0,-1.339980662E-1,-9.877572060E0,-4.307080805E-2
7.103498335E0,-1.627119333E-1,-9.863214493E0,-2.392822690E-2
7.113186929E0,-1.531406492E-1,-9.872786522E0,-2.871387079E-2
7.122873960E0,-1.435693651E-1,-9.863214493E0,-2.392822690E-2
7.132560992E0,-1.435693651E-1,-9.872786522E0,-2.871387079E-2
7.142249117E0,-1.483550072E-1,-9.891928673E0,-2.871387079E-2
7.151938387E0,-1.483550072E-1,-9.882357597E0,-2.871387079E-2
7.161626564E0,-1.579262912E-1,-9.872786522E0,-1.435693540E-2
7.171314689E0,-1.579262912E-1,-9.882357597E0,-3.349951655E-2
7.181002033E0,-1.387837082E-1,-9.877572060E0,-3.828516230E-2
7.190691408E0,-1.531406492E-1,-9.868000984E0,-1.435693540E-2
7.200379950E0,-1.579262912E-1,-9.877572060E0,-2.871387079E-2
7.210068075E0,-1.339980662E-1,-9.863214493E0,-1.914258115E-2
7.219754846E0,-1.387837082E-1,-9.877572060E0,-1.914258115E-2
7.229441773E0,-1.244267747E-1,-9.877572060E0,-1.914258115E-2
7.239130679E0,-1.531406492E-1,-9.882357597E0,-1.435693540E-2
7.248818908E0,-1.531406492E-1,-9.891928673E0,-2.392822690E-2
7.258505731E0,-1.435693651E-1,-9.868000984E0,-1.435693540E-2
7.268193127E0,-1.579262912E-1,-9.877572060E0,-1.914258115E-2
7.277881617E0,-1.579262912E-1,-9.872786522E0,-1.914258115E-2
7.287568335E0,-1.339980662E-1,-9.872786522E0,-3.349951655E-2
7.297256617E0,-1.483550072E-1,-9.858428955E0,-3.349951655E-2
7.306942814E0,-1.579262912E-1,-9.863214493E0,-1.435693540E-2
7.316630158E0,-1.435693651E-1,-9.872786522E0,-4.307080805E-2
7.326317814E0,-1.483550072E-1,-9.882357597E0,-1.435693540E-2
7.336005575E0,-1.387837082E-1,-9.882357597E0,-1.914258115E-2
7.345692762E0,-1.531406492E-1,-9.877572060E0,-2.871387079E-2
7.355380158E0,-1.627119333E-1,-9.868000984E0,-3.349951655E-2
7.365067658E0,-1.292124242E-1,-9.877572060E0,-2.392822690E-2
7.374755835E0,-1.339980662E-1,-9.877572060E0,-1.914258115E-2
7.384442137E0,-1.387837082E-1,-9.872786522E0,-1.914258115E-2
7.394128127E0,-1.387837082E-1,-9.877572060E0,-1.435693540E-2
7.403813492E0,-1.531406492E-1,-9.887143135E0,-2.871387079E-2
7.413500523E0,-1.579262912E-1,-9.887143135E0,-3.828516230E-2
7.423186460E0,-1.579262912E-1,-9.872786522E0,-1.914258115E-2
7.432874012E0,-1.387837082E-1,-9.877572060E0,-2.392822690E-2
7.442560367E0,-1.483550072E-1,-9.868000984E0,-1.914258115E-2
7.452246096E0,-1.722832322E-1,-9.891928673E0,-2.392822690E-2
7.461934064E0,-1.579262912E-1,-9.882357597E0,-2.871387079E-2
7.471619950E0,-1.483550072E-1,-9.868000984E0,-4.307080805E-2
7.481306929E0,-1.579262912E-1,-9.882357597E0,-2.871387079E-2
7.490993179E0,-1.531406492E-1,-9.877572060E0,-3.828516230E-2
7.500680210E0,-1.579262912E-1,-9.872786522E0,-2.392822690E-2
7.510367346E0,-1.483550072E-1,-9.872786522E0,-3.349951655E-2
7.520053700E0,-1.531406492E-1,-9.877572060E0,-1.914258115E-2
7.529738596E0,-1.531406492E-1,-9.858428955E0,-2.871387079E-2
7.539424169E0,-1.483550072E-1,-9.887143135E0,-1.435693540E-2
7.549110262E0,-1.579262912E-1,-9.877572060E0,-1.435693540E-2
7.558796564E0,-1.292124242E-1,-9.877572060E0,-3.349951655E-2
7.568483596E0,-1.531406492E-1,-9.877572060E0,-1.914258115E-2
7.578170627E0,-1.483550072E-1,-9.882357597E0,-2.392822690E-2
7.587859429E0,-1.627119333E-1,-9.877572060E0,-1.435693540E-2
7.597548127E0,-1.579262912E-1,-9.877572060E0,-3.349951655E-2
7.607235939E0,-1.818545163E-1,-9.877572060E0,-3.349951655E-2
7.616922606E0,-1.531406492E-1,-9.887143135E0,-3.828516230E-2
7.626610783E0,-1.531406492E-1,-9.887143135E0,-1.914258115E-2
7.636299689E0,-1.483550072E-1,-9.868000984E0,-2.392822690E-2
7.645988492E0,-1.483550072E-1,-9.877572060E0,-1.435693540E-2
7.655675575E0,-1.387837082E-1,-9.877572060E0,-2.392822690E-2
7.665361825E0,-1.483550072E-1,-9.877572060E0,-3.349951655E-2
7.675049377E0,-1.627119333E-1,-9.872786522E0,-1.914258115E-2
7.684735002E0,-1.483550072E-1,-9.872786522E0,-1.435693540E-2
7.694421981E0,-1.483550072E-1,-9.891928673E0,-3.349951655E-2
7.704111096E0,-1.579262912E-1,-9.891928673E0,-2.871387079E-2
7.713798231E0,-1.483550072E-1,-9.877572060E0,-1.914258115E-2
7.723484377E0,-1.531406492E-1,-9.877572060E0,-1.435693540E-2
7.733170679E0,-1.627119333E-1,-9.877572060E0,-2.871387079E-2
7.742857242E0,-1.579262912E-1,-9.882357597E0,-1.435693540E-2
7.752544064E0,-1.483550072E-1,-9.877572060E0,-2.871387079E-2
7.762231825E0,-1.435693651E-1,-9.872786522E0,-2.871387079E-2
7.771918960E0,-1.579262912E-1,-9.877572060E0,-1.435693540E-2
7.781606200E0,-1.339980662E-1,-9.887143135E0,-2.871387079E-2
7.791293075E0,-1.531406492E-1,-9.858428955E0,-1.914258115E-2
7.800978908E0,-1.435693651E-1,-9.877572060E0,-2.392822690E-2
7.810665939E0,-1.435693651E-1,-9.891928673E0,-1.435693540E-2
7.820352710E0,-1.339980662E-1,-9.887143135E0,-2.392822690E-2
7.830038648E0,-1.579262912E-1,-9.863214493E0,-3.349951655E-2
7.839725679E0,-1.531406492E-1,-9.863214493E0,-1.435693540E-2
7.849412450E0,-1.483550072E-1,-9.872786522E0,-2.392822690E-2
7.859100835E0,-1.339980662E-1,-9.877572060E0,-3.828516230E-2
7.868788960E0,-1.483550072E-1,-9.877572060E0,-2.392822690E-2
7.878477606E0,-1.339980662E-1,-9.872786522E0,-3.828516230E-2
7.888163439E0,-1.483550072E-1,-9.896714211E0,-3.828516230E-2
7.897850939E0,-1.531406492E-1,-9.877572060E0,-2.392822690E-2
7.907538960E0,-1.674975902E-1,-9.872786522E0,-2.871387079E-2
7.917226669E0,-1.483550072E-1,-9.872786522E0,-1.914258115E-2
7.926913804E0,-1.387837082E-1,-9.872786522E0,-2.392822690E-2
7.936602189E0,-1.579262912E-1,-9.877572060E0,-2.392822690E-2
7.946291044E0,-1.531406492E-1,-9.887143135E0,-2.871387079E-2
7.955978544E0,-1.435693651E-1,-9.882357597E0,-2.392822690E-2
7.965665106E0,-1.579262912E-1,-9.882357597E0,-2.871387079E-2
7.975353804E0,-1.483550072E-1,-9.872786522E0,-2.871387079E-2
7.985041408E0,-1.531406492E-1,-9.877572060E0,-3.349951655E-2
7.994728960E0,-1.579262912E-1,-9.887143135E0,-1.914258115E-2
8.004416564E0,-1.627119333E-1,-9.858428955E0,-2.392822690E-2
8.014104221E0,-1.722832322E-1,-9.872786522E0,-1.435693540E-2
8.023791512E0,-1.579262912E-1,-9.877572060E0,-1.435693540E-2
8.033479064E0,-1.531406492E-1,-9.872786522E0,-3.828516230E-2
8.043165679E0,-1.770688742E-1,-9.877572060E0,-3.349951655E-2
8.052852814E0,-1.674975902E-1,-9.868000984E0,-9.571290575E-3
8.062538648E0,-1.579262912E-1,-9.887143135E0,-2.392822690E-2
8.072224689E0,-1.387837082E-1,-9.868000984E0,-1.914258115E-2
8.081911825E0,-1.531406492E-1,-9.877572060E0,-3.828516230E-2
8.091599325E0,-1.531406492E-1,-9.877572060E0,-3.349951655E-2
8.101286981E0,-1.483550072E-1,-9.872786522E0,-1.435693540E-2
8.110974898E0,-1.483550072E-1,-9.872786522E0,-2.871387079E-2
8.120662346E0,-1.483550072E-1,-9.882357597E0,-2.871387079E-2
8.130349585E0,-1.531406492E-1,-9.868000984E0,-2.871387079E-2
8.140036617E0,-1.579262912E-1,-9.868000984E0,-2.871387079E-2
8.149724481E0,-1.435693651E-1,-9.887143135E0,-3.349951655E-2
8.159412033E0,-1.722832322E-1,-9.887143135E0,-3.349951655E-2
8.169100627E0,-1.387837082E-1,-9.887143135E0,-1.435693540E-2
8.178787502E0,-1.387837082E-1,-9.868000984E0,-2.871387079E-2
8.188475575E0,-1.483550072E-1,-9.887143135E0,-2.871387079E-2
8.198164012E0,-1.674975902E-1,-9.872786522E0,-2.392822690E-2
8.207853335E0,-1.579262912E-1,-9.868000984E0,-3.349951655E-2
8.217540939E0,-1.435693651E-1,-9.882357597E0,-2.392822690E-2
8.227228439E0,-1.435693651E-1,-9.872786522E0,-2.871387079E-2
8.236917554E0,-1.722832322E-1,-9.896714211E0,-3.828516230E-2
8.246604742E0,-1.531406492E-1,-9.882357597E0,-2.871387079E-2
8.256292085E0,-1.483550072E-1,-9.868000984E0,-3.349951655E-2
8.265979117E0,-1.435693651E-1,-9.872786522E0,-3.828516230E-2
8.275668335E0,-1.531406492E-1,-9.872786522E0,-3.349951655E-2
8.285356617E0,-1.483550072E-1,-9.868000984E0,-2.871387079E-2
8.295045523E0,-1.483550072E-1,-9.877572060E0,-2.871387079E-2
8.304733231E0,-1.531406492E-1,-9.872786522E0,-1.914258115E-2
8.314421669E0,-1.579262912E-1,-9.872786522E0,-2.392822690E-2
8.324109742E0,-1.579262912E-1,-9.882357597E0,-2.871387079E-2
8.333797294E0,-1.483550072E-1,-9.891928673E0,-2.392822690E-2
8.343485054E0,-1.483550072E-1,-9.868000984E0,-2.392822690E-2
8.353173804E0,-1.435693651E-1,-9.877572060E0,-2.392822690E-2
8.362862294E0,-1.579262912E-1,-9.877572060E0,-1.914258115E-2
8.372548387E0,-1.674975902E-1,-9.887143135E0,-3.828516230E-2
8.382235731E0,-1.339980662E-1,-9.877572060E0,-2.871387079E-2
8.391923908E0,-1.627119333E-1,-9.863214493E0,-3.349951655E-2
8.401611356E0,-1.483550072E-1,-9.877572060E0,-2.871387079E-2
8.411299325E0,-1.579262912E-1,-9.868000984E0,-3.349951655E-2
8.420985939E0,-1.531406492E-1,-9.882357597E0,-2.392822690E-2
8.430673335E0,-1.579262912E-1,-9.882357597E0,-9.571290575E-3
8.440360106E0,-1.483550072E-1,-9.877572060E0,-2.871387079E-2
8.450045731E0,-1.531406492E-1,-9.858428955E0,-9.571290575E-3
8.459732919E0,-1.579262912E-1,-9.868000984E0,-9.571290575E-3
8.469420054E0,-1.387837082E-1,-9.882357597E0,-2.871387079E-2
8.479106877E0,-1.579262912E-1,-9.887143135E0,-1.435693540E-2
8.488793127E0,-1.627119333E-1,-9.891928673E0,-3.349951655E-2
8.498477762E0,-1.435693651E-1,-9.868000984E0,-1.914258115E-2
8.508164064E0,-1.531406492E-1,-9.868000984E0,-2.871387079E-2
8.517850835E0,-1.531406492E-1,-9.877572060E0,-2.392822690E-2
8.527536564E0,-1.531406492E-1,-9.896714211E0,-2.871387079E-2
8.537223387E0,-1.579262912E-1,-9.872786522E0,-3.349951655E-2
8.546908752E0,-1.483550072E-1,-9.872786522E0,-2.871387079E-2
8.556595523E0,-1.531406492E-1,-9.877572060E0,-2.871387079E-2
8.566281721E0,-1.483550072E-1,-9.858428955E0,-3.349951655E-2
8.575968231E0,-1.531406492E-1,-9.882357597E0,-9.571290575E-3
8.585655679E0,-1.483550072E-1,-9.877572060E0,-2.871387079E-2
8.595342919E0,-1.339980662E-1,-9.877572060E0,-2.871387079E-2
8.605030731E0,-1.339980662E-1,-9.868000984E0,-3.349951655E-2
8.614715679E0,-1.531406492E-1,-9.868000984E0,-2.871387079E-2
8.624400471E0,-1.387837082E-1,-9.863214493E0,-2.392822690E-2
8.634085835E0,-1.435693651E-1,-9.877572060E0,-2.392822690E-2
8.643771252E0,-1.531406492E-1,-9.872786522E0,-1.435693540E-2
8.653456773E0,-1.579262912E-1,-9.877572060E0,-1.435693540E-2
8.663143075E0,-1.531406492E-1,-9.882357597E0,-1.914258115E-2
8.672829429E0,-1.483550072E-1,-9.882357597E0,-2.871387079E-2
8.682515158E0,-1.531406492E-1,-9.868000984E0,-1.914258115E-2
8.692202085E0,-1.483550072E-1,-9.868000984E0,-1.435693540E-2
8.701887033E0,-1.435693651E-1,-9.872786522E0,-2.392822690E-2
8.711572814E0,-1.483550072E-1,-9.887143135E0,-2.871387079E-2
8.721258804E0,-1.387837082E-1,-9.863214493E0,-1.914258115E-2
8.730945627E0,-1.435693651E-1,-9.877572060E0,-2.392822690E-2
8.740630783E0,-1.483550072E-1,-9.868000984E0,-3.349951655E-2
8.750316981E0,-1.483550072E-1,-9.877572060E0,-3.828516230E-2
8.760002762E0,-1.435693651E-1,-9.863214493E0,-2.392822690E-2
8.769688960E0,-1.483550072E-1,-9.882357597E0,-3.349951655E-2
8.779375210E0,-1.483550072E-1,-9.872786522E0,-2.392822690E-2
8.789061200E0,-1.627119333E-1,-9.863214493E0,-2.871387079E-2
8.798747554E0,-1.483550072E-1,-9.877572060E0,-2.392822690E-2
8.808433752E0,-1.387837082E-1,-9.868000984E0,-2.871387079E-2
8.818119533E0,-1.579262912E-1,-9.872786522E0,-2.392822690E-2
8.827804846E0,-1.483550072E-1,-9.877572060E0,-4.307080805E-2
8.837491408E0,-1.627119333E-1,-9.882357597E0,-4.307080805E-2
8.847176512E0,-1.531406492E-1,-9.887143135E0,-1.914258115E-2
8.856861877E0,-1.435693651E-1,-9.877572060E0,-2.392822690E-2
8.866547867E0,-1.531406492E-1,-9.891928673E0,-2.871387079E-2
8.876233283E0,-1.627119333E-1,-9.882357597E0,-3.828516230E-2
8.885918439E0,-1.627119333E-1,-9.863214493E0,-3.828516230E-2
8.895605627E0,-1.627119333E-1,-9.868000984E0,-3.349951655E-2
8.905292033E0,-1.579262912E-1,-9.872786522E0,-1.914258115E-2
8.914978856E0,-1.674975902E-1,-9.877572060E0,-2.871387079E-2
8.924665835E0,-1.435693651E-1,-9.872786522E0,-3.349951655E-2
8.934352762E0,-1.579262912E-1,-9.877572060E0,-2.871387079E-2
8.944040054E0,-1.531406492E-1,-9.868000984E0,-2.871387079E-2
8.953726564E0,-1.531406492E-1,-9.868000984E0,-2.871387079E-2
8.963413908E0,-1.627119333E-1,-9.882357597E0,-2.392822690E-2
8.973100054E0,-1.387837082E-1,-9.863214493E0,-3.349951655E-2
8.982786408E0,-1.579262912E-1,-9.872786522E0,-1.435693540E-2
8.992471877E0,-1.531406492E-1,-9.868000984E0,-2.871387079E-2
9.002157710E0,-1.531406492E-1,-9.882357597E0,-2.871387079E-2
9.011845575E0,-1.531406492E-1,-9.882357597E0,-2.392822690E-2
9.021533700E0,-1.435693651E-1,-9.877572060E0,-9.571290575E-3
9.031219846E0,-1.579262912E-1,-9.882357597E0,-2.392822690E-2
9.040906981E0,-1.483550072E-1,-9.877572060E0,-2.392822690E-2
9.050594533E0,-1.674975902E-1,-9.872786522E0,-2.871387079E-2
9.060281721E0,-1.531406492E-1,-9.872786522E0,-2.871387079E-2
9.069967294E0,-1.483550072E-1,-9.872786522E0,-2.392822690E-2
9.079653596E0,-1.627119333E-1,-9.872786522E0,-3.349951655E-2
9.089341408E0,-1.435693651E-1,-9.882357597E0,-3.349951655E-2
9.099029117E0,-1.435693651E-1,-9.887143135E0,-2.871387079E-2
9.108715992E0,-1.579262912E-1,-9.872786522E0,-2.871387079E-2
9.118401929E0,-1.674975902E-1,-9.877572060E0,-2.871387079E-2
9.128089169E0,-1.483550072E-1,-9.877572060E0,-2.871387079E-2
9.137776460E0,-1.435693651E-1,-9.877572060E0,-3.828516230E-2
9.147463231E0,-1.339980662E-1,-9.882357597E0,-2.871387079E-2
9.157148283E0,-1.435693651E-1,-9.887143135E0,-2.392822690E-2
9.166834898E0,-1.531406492E-1,-9.858428955E0,-1.914258115E-2
9.176521044E0,-1.531406492E-1,-9.887143135E0,-2.392822690E-2
9.186206981E0,-1.435693651E-1,-9.891928673E0,-3.828516230E-2
9.195893023E0,-1.435693651E-1,-9.882357597E0,-1.914258115E-2
9.205577971E0,-1.483550072E-1,-9.868000984E0,-2.871387079E-2
9.215264950E0,-1.387837082E-1,-9.882357597E0,-1.435693540E-2
9.224951512E0,-1.531406492E-1,-9.868000984E0,-3.828516230E-2
9.234637189E0,-1.483550072E-1,-9.863214493E0,-2.871387079E-2
9.244323908E0,-1.435693651E-1,-9.868000984E0,-1.435693540E-2
9.254011148E0,-1.722832322E-1,-9.863214493E0,-3.828516230E-2
9.263697971E0,-1.531406492E-1,-9.877572060E0,-2.392822690E-2
9.273383335E0,-1.435693651E-1,-9.863214493E0,-5.742774159E-2
9.283070210E0,-1.674975902E-1,-9.872786522E0,-2.871387079E-2
9.292756929E0,-1.483550072E-1,-9.877572060E0,-1.914258115E-2
9.302443700E0,-1.531406492E-1,-9.877572060E0,-2.392822690E-2
9.312131304E0,-1.531406492E-1,-9.872786522E0,-2.392822690E-2
9.321818908E0,-1.531406492E-1,-9.863214493E0,-2.871387079E-2
9.331505575E0,-1.387837082E-1,-9.877572060E0,-2.871387079E-2
9.341192189E0,-1.531406492E-1,-9.887143135E0,-2.871387079E-2
9.350877971E0,-1.531406492E-1,-9.868000984E0,-3.828516230E-2
9.360565471E0,-1.483550072E-1,-9.868000984E0,-2.871387079E-2
9.370251773E0,-1.483550072E-1,-9.887143135E0,-2.871387079E-2
9.379937658E0,-1.674975902E-1,-9.877572060E0,-2.392822690E-2
9.389624585E0,-1.483550072E-1,-9.872786522E0,-2.392822690E-2
9.399311356E0,-1.579262912E-1,-9.891928673E0,-2.392822690E-2
9.408997554E0,-1.579262912E-1,-9.887143135E0,-3.828516230E-2
9.418685002E0,-1.435693651E-1,-9.877572060E0,-2.392822690E-2
9.428372502E0,-1.483550072E-1,-9.863214493E0,-2.392822690E-2
9.438057814E0,-1.387837082E-1,-9.872786522E0,-2.871387079E-2
9.447744742E0,-1.531406492E-1,-9.891928673E0,-3.349951655E-2
9.457431825E0,-1.387837082E-1,-9.882357597E0,-2.871387079E-2
9.467119117E0,-1.435693651E-1,-9.887143135E0,-3.828516230E-2
9.476805106E0,-1.531406492E-1,-9.872786522E0,-3.349951655E-2
9.486491200E0,-1.531406492E-1,-9.877572060E0,-2.392822690E-2
9.496176460E0,-1.435693651E-1,-9.891928673E0,-2.392822690E-2
9.505861512E0,-1.531406492E-1,-9.877572060E0,-3.828516230E-2
9.515547919E0,-1.483550072E-1,-9.868000984E0,-1.914258115E-2
9.525234169E0,-1.531406492E-1,-9.891928673E0,-3.349951655E-2
9.534920471E0,-1.531406492E-1,-9.882357597E0,-1.914258115E-2
9.544605523E0,-1.483550072E-1,-9.877572060E0,-3.828516230E-2
9.554291512E0,-1.579262912E-1,-9.868000984E0,-1.914258115E-2
9.563978856E0,-1.531406492E-1,-9.882357597E0,-3.349951655E-2
9.573665575E0,-1.387837082E-1,-9.891928673E0,-2.871387079E-2
9.583352033E0,-1.387837082E-1,-9.882357597E0,-3.349951655E-2
9.593037971E0,-1.531406492E-1,-9.868000984E0,-9.571290575E-3
9.602723439E0,-1.435693651E-1,-9.872786522E0,-1.435693540E-2
9.612409742E0,-1.483550072E-1,-9.882357597E0,-4.785645381E-2
9.622095419E0,-1.387837082E-1,-9.882357597E0,-2.871387079E-2
9.631781825E0,-1.579262912E-1,-9.882357597E0,-3.349951655E-2
9.641468179E0,-1.387837082E-1,-9.848857880E0,-2.871387079E-2
9.651155887E0,-1.435693651E-1,-9.872786522E0,-2.392822690E-2
9.660843023E0,-1.531406492E-1,-9.891928673E0,-3.828516230E-2
9.670529429E0,-1.435693651E-1,-9.877572060E0,-3.828516230E-2
9.680215419E0,-1.579262912E-1,-9.877572060E0,-2.871387079E-2
9.689901721E0,-1.435693651E-1,-9.877572060E0,-2.871387079E-2
9.699586721E0,-1.722832322E-1,-9.877572060E0,-1.435693540E-2
9.709272346E0,-1.483550072E-1,-9.896714211E0,-2.871387079E-2
9.718957398E0,-1.483550072E-1,-9.882357597E0,-3.349951655E-2
9.728642554E0,-1.531406492E-1,-9.863214493E0,-2.871387079E-2
9.738329064E0,-1.435693651E-1,-9.868000984E0,-3.828516230E-2
9.748014481E0,-1.531406492E-1,-9.872786522E0,-2.392822690E-2
9.757700002E0,-1.627119333E-1,-9.868000984E0,-2.871387079E-2
9.767386356E0,-1.483550072E-1,-9.877572060E0,-3.828516230E-2
9.777072346E0,-1.627119333E-1,-9.882357597E0,-3.828516230E-2
9.786759012E0,-1.483550072E-1,-9.882357597E0,-1.914258115E-2
9.796444273E0,-1.674975902E-1,-9.863214493E0,-2.871387079E-2
9.806128596E0,-1.579262912E-1,-9.877572060E0,-2.871387079E-2
9.815814169E0,-1.674975902E-1,-9.882357597E0,-2.392822690E-2
9.825501408E0,-1.531406492E-1,-9.882357597E0,-1.914258115E-2
9.835186929E0,-1.674975902E-1,-9.882357597E0,-1.914258115E-2
9.844873960E0,-1.483550072E-1,-9.868000984E0,-2.392822690E-2
9.854559950E0,-1.387837082E-1,-9.868000984E0,-2.871387079E-2
9.864246981E0,-1.531406492E-1,-9.868000984E0,-1.435693540E-2
9.873933856E0,-1.627119333E-1,-9.863214493E0,-2.871387079E-2
9.883621721E0,-1.483550072E-1,-9.882357597E0,-3.349951655E-2
9.893309585E0,-1.292124242E-1,-9.872786522E0,-4.785645381E-2
9.902995471E0,-1.579262912E-1,-9.872786522E0,-2.392822690E-2
9.912680887E0,-1.387837082E-1,-9.882357597E0,-1.435693540E-2
9.922366512E0,-1.435693651E-1,-9.887143135E0,-2.392822690E-2
9.932053439E0,-1.579262912E-1,-9.887143135E0,-9.571290575E-3
9.941740679E0,-1.531406492E-1,-9.877572060E0,-3.349951655E-2
9.951426981E0,-1.627119333E-1,-9.872786522E0,-2.871387079E-2
9.961114689E0,-1.531406492E-1,-9.877572060E0,-1.914258115E-2
9.970802658E0,-1.483550072E-1,-9.877572060E0,-4.307080805E-2
9.980489169E0,-1.483550072E-1,-9.887143135E0,-3.828516230E-2
9.990175471E0,-1.435693651E-1,-9.877572060E0,-1.435693540E-2
9.999860471E0,-1.531406492E-1,-9.877572060E0,-2.871387079E-2
1.000954490E1,-1.483550072E-1,-9.887143135E0,-2.871387079E-2
1.001923016E1,-1.579262912E-1,-9.868000984E0,-2.392822690E-2
1.002891563E1,-1.531406492E-1,-9.882357597E0,-3.828516230E-2
1.003860136E1,-1.483550072E-1,-9.887143135E0,-2.392822690E-2
1.004828787E1,-1.387837082E-1,-9.872786522E0,-3.828516230E-2
1.005797490E1,-1.435693651E-1,-9.882357597E0,-2.871387079E-2
1.006765933E1,-1.579262912E-1,-9.868000984E0,-2.871387079E-2
1.007734432E1,-1.674975902E-1,-9.868000984E0,-1.435693540E-2
1.008703011E1,-1.435693651E-1,-9.858428955E0,-3.349951655E-2
1.009671584E1,-1.531406492E-1,-9.872786522E0,-2.871387079E-2
1.010640167E1,-1.627119333E-1,-9.882357597E0,-2.392822690E-2
1.011608708E1,-1.435693651E-1,-9.868000984E0,-2.871387079E-2
1.012577209E1,-1.339980662E-1,-9.882357597E0,-2.871387079E-2
1.013545828E1,-1.531406492E-1,-9.877572060E0,-3.828516230E-2
1.014514349E1,-1.483550072E-1,-9.868000984E0,-2.871387079E-2
1.015482802E1,-1.579262912E-1,-9.872786522E0,-2.392822690E-2
1.016451354E1,-1.435693651E-1,-9.882357597E0,-2.392822690E-2
1.017420068E1,-1.531406492E-1,-9.872786522E0,-3.828516230E-2
1.018388604E1,-1.483550072E-1,-9.872786522E0,-2.871387079E-2
1.019357313E1,-1.483550072E-1,-9.877572060E0,-3.349951655E-2
1.020325854E1,-1.435693651E-1,-9.868000984E0,-2.392822690E-2
1.021294542E1,-1.387837082E-1,-9.887143135E0,-3.828516230E-2
1.022263182E1,-1.531406492E-1,-9.868000984E0,-3.349951655E-2
1.023231886E1,-1.483550072E-1,-9.863214493E0,-2.392822690E-2
1.024200589E1,-1.531406492E-1,-9.872786522E0,-3.349951655E-2
1.025169281E1,-1.579262912E-1,-9.896714211E0,-2.392822690E-2
1.026137766E1,-1.435693651E-1,-9.872786522E0,-3.349951655E-2
1.027106292E1,-1.674975902E-1,-9.877572060E0,-3.828516230E-2
1.028074875E1,-1.674975902E-1,-9.882357597E0,-2.871387079E-2
1.029043547E1,-1.579262912E-1,-9.863214493E0,-2.871387079E-2
1.030012136E1,-1.483550072E-1,-9.891928673E0,-3.349951655E-2
1.030980792E1,-1.483550072E-1,-9.877572060E0,-3.828516230E-2
1.031949349E1,-1.483550072E-1,-9.877572060E0,-2.871387079E-2
1.032917990E1,-1.483550072E-1,-9.882357597E0,-2.871387079E-2
1.033886516E1,-1.435693651E-1,-9.891928673E0,-3.349951655E-2
1.034855203E1,-1.483550072E-1,-9.887143135E0,-1.435693540E-2
1.035823677E1,-1.627119333E-1,-9.882357597E0,-2.871387079E-2
1.036792130E1,-1.579262912E-1,-9.863214493E0,-3.828516230E-2
1.037760735E1,-1.674975902E-1,-9.882357597E0,-3.828516230E-2
1.038729250E1,-1.483550072E-1,-9.877572060E0,-1.914258115E-2
1.039697823E1,-1.579262912E-1,-9.872786522E0,-2.871387079E-2
1.040666479E1,-1.483550072E-1,-9.868000984E0,-2.871387079E-2
1.041635047E1,-1.579262912E-1,-9.858428955E0,-2.871387079E-2
1.042603630E1,-1.579262912E-1,-9.868000984E0,-4.307080805E-2
1.043572130E1,-1.483550072E-1,-9.882357597E0,-3.349951655E-2
1.044540698E1,-1.579262912E-1,-9.877572060E0,-4.307080805E-2
1.045509224E1,-1.627119333E-1,-9.853643417E0,-2.871387079E-2
1.046477808E1,-1.483550072E-1,-9.868000984E0,-1.914258115E-2
1.047446365E1,-1.483550072E-1,-9.872786522E0,-2.392822690E-2
1.048414917E1,-1.579262912E-1,-9.887143135E0,-3.828516230E-2
1.049383448E1,-1.531406492E-1,-9.887143135E0,-2.392822690E-2
1.050351959E1,-1.483550072E-1,-9.872786522E0,-2.392822690E-2
1.051320511E1,-1.435693651E-1,-9.868000984E0,-3.349951655E-2
1.052289068E1,-1.483550072E-1,-9.872786522E0,-2.392822690E-2
1.053257719E1,-1.579262912E-1,-9.877572060E0,-2.871387079E-2
1.054226203E1,-1.579262912E-1,-9.882357597E0,-2.871387079E-2
1.055194630E1,-1.531406492E-1,-9.872786522E0,-2.871387079E-2
1.056163099E1,-1.435693651E-1,-9.863214493E0,-2.871387079E-2
1.057131526E1,-1.483550072E-1,-9.877572060E0,-3.828516230E-2
1.058099958E1,-1.435693651E-1,-9.882357597E0,-3.349951655E-2
1.059068443E1,-1.531406492E-1,-9.877572060E0,-3.828516230E-2
1.060037120E1,-1.292124242E-1,-9.877572060E0,-1.435693540E-2
1.061005568E1,-1.579262912E-1,-9.872786522E0,-5.264209956E-2
1.061974130E1,-1.483550072E-1,-9.863214493E0,-4.307080805E-2
1.062942584E1,-1.483550072E-1,-9.882357597E0,-2.871387079E-2
1.063911031E1,-1.627119333E-1,-9.863214493E0,-2.871387079E-2
1.064879584E1,-1.531406492E-1,-9.872786522E0,-2.392822690E-2
1.065848130E1,-1.483550072E-1,-9.882357597E0,-3.349951655E-2
1.066816787E1,-1.579262912E-1,-9.887143135E0,-2.871387079E-2
1.067785193E1,-1.579262912E-1,-9.887143135E0,-2.871387079E-2
1.068753719E1,-1.483550072E-1,-9.882357597E0,-3.349951655E-2
1.069722308E1,-1.483550072E-1,-9.877572060E0,-3.349951655E-2
1.070690865E1,-1.531406492E-1,-9.887143135E0,-3.349951655E-2
1.071659391E1,-1.627119333E-1,-9.863214493E0,-2.871387079E-2
1.072627917E1,-1.579262912E-1,-9.877572060E0,-2.392822690E-2
1.073596412E1,-1.531406492E-1,-9.896714211E0,-3.828516230E-2
1.074564922E1,-1.435693651E-1,-9.882357597E0,-4.307080805E-2
1.075533334E1,-1.627119333E-1,-9.868000984E0,-3.349951655E-2
1.076501917E1,-1.579262912E-1,-9.887143135E0,-2.871387079E-2
1.077470375E1,-1.435693651E-1,-9.877572060E0,-3.828516230E-2
1.078438886E1,-1.579262912E-1,-9.872786522E0,-2.871387079E-2
1.079407464E1,-1.674975902E-1,-9.872786522E0,-4.307080805E-2
1.080375896E1,-1.531406492E-1,-9.882357597E0,-2.871387079E-2
1.081344495E1,-1.531406492E-1,-9.868000984E0,-2.871387079E-2
1.082313110E1,-1.579262912E-1,-9.882357597E0,-2.871387079E-2
1.083281531E1,-1.627119333E-1,-9.868000984E0,-1.914258115E-2
1.084250047E1,-1.674975902E-1,-9.872786522E0,-3.349951655E-2
1.085218667E1,-1.387837082E-1,-9.887143135E0,-2.392822690E-2
1.086187302E1,-1.579262912E-1,-9.868000984E0,-4.785645381E-2
1.087155912E1,-1.292124242E-1,-9.882357597E0,-2.392822690E-2
1.088124646E1,-1.435693651E-1,-9.882357597E0,-3.349951655E-2
1.089093203E1,-1.531406492E-1,-9.891928673E0,-3.349951655E-2
1.090061735E1,-1.531406492E-1,-9.877572060E0,-2.392822690E-2
1.091030162E1,-1.579262912E-1,-9.877572060E0,-2.392822690E-2
1.091998808E1,-1.531406492E-1,-9.868000984E0,-2.871387079E-2
1.092967422E1,-1.627119333E-1,-9.872786522E0,-4.785645381E-2
1.093936000E1,-1.339980662E-1,-9.868000984E0,-3.828516230E-2
1.094904578E1,-1.674975902E-1,-9.872786522E0,-2.871387079E-2
1.095873188E1,-1.483550072E-1,-9.868000984E0,-2.871387079E-2
1.096841750E1,-1.483550072E-1,-9.872786522E0,-3.349951655E-2
1.097810250E1,-1.435693651E-1,-9.872786522E0,-2.871387079E-2
1.098778714E1,-1.627119333E-1,-9.872786522E0,-3.828516230E-2
1.099747328E1,-1.483550072E-1,-9.877572060E0,-2.392822690E-2
1.100715896E1,-1.579262912E-1,-9.868000984E0,-3.349951655E-2
1.101684344E1,-1.627119333E-1,-9.872786522E0,-2.871387079E-2
1.102652870E1,-1.674975902E-1,-9.872786522E0,-2.871387079E-2
1.103621464E1,-1.531406492E-1,-9.872786522E0,-2.871387079E-2
1.104590089E1,-1.531406492E-1,-9.877572060E0,-3.828516230E-2
1.105558703E1,-1.674975902E-1,-9.872786522E0,-2.392822690E-2
1.106527224E1,-1.483550072E-1,-9.877572060E0,-2.871387079E-2
1.107495834E1,-1.531406492E-1,-9.877572060E0,-2.871387079E-2
1.108464360E1,-1.531406492E-1,-9.891928673E0,-3.828516230E-2
1.109432834E1,-1.531406492E-1,-9.882357597E0,-4.307080805E-2
1.110401344E1,-1.579262912E-1,-9.877572060E0,-3.349951655E-2
1.111369792E1,-1.627119333E-1,-9.882357597E0,-2.871387079E-2
1.112338193E1,-1.627119333E-1,-9.882357597E0,-3.349951655E-2
1.113306672E1,-1.531406492E-1,-9.882357597E0,-4.307080805E-2
1.114275120E1,-1.627119333E-1,-9.891928673E0,-3.349951655E-2
1.115243542E1,-1.387837082E-1,-9.887143135E0,-4.307080805E-2
1.116212073E1,-1.483550072E-1,-9.877572060E0,-3.828516230E-2
1.117180646E1,-1.627119333E-1,-9.882357597E0,-3.828516230E-2
1.118149380E1,-1.579262912E-1,-9.877572060E0,-4.785645381E-2
1.119118031E1,-1.770688742E-1,-9.872786522E0,-3.828516230E-2
1.120086485E1,-1.579262912E-1,-9.868000984E0,-4.307080805E-2
1.121054990E1,-1.483550072E-1,-9.868000984E0,-1.435693540E-2
1.122023563E1,-1.579262912E-1,-9.887143135E0,-2.871387079E-2
1.122992068E1,-1.579262912E-1,-9.882357597E0,-1.914258115E-2
1.123960750E1,-1.435693651E-1,-9.882357597E0,-3.828516230E-2
1.124929287E1,-1.531406492E-1,-9.891928673E0,-2.871387079E-2
1.125897761E1,-1.531406492E-1,-9.877572060E0,-2.871387079E-2
1.126866130E1,-1.531406492E-1,-9.891928673E0,-2.392822690E-2
1.127834604E1,-1.722832322E-1,-9.887143135E0,-1.914258115E-2
1.128803104E1,-1.722832322E-1,-9.877572060E0,-2.392822690E-2
1.129771594E1,-1.435693651E-1,-9.887143135E0,-2.392822690E-2
1.130739922E1,-1.483550072E-1,-9.863214493E0,-2.392822690E-2
1.131708412E1,-1.531406492E-1,-9.877572060E0,-3.828516230E-2
1.132676932E1,-1.435693651E-1,-9.863214493E0,-2.871387079E-2
1.133645287E1,-1.579262912E-1,-9.868000984E0,-3.828516230E-2
1.134613854E1,-1.435693651E-1,-9.882357597E0,-2.871387079E-2
1.135582464E1,-1.483550072E-1,-9.863214493E0,-1.914258115E-2
1.136551063E1,-1.531406492E-1,-9.882357597E0,-3.349951655E-2
1.137519766E1,-1.531406492E-1,-9.877572060E0,-2.871387079E-2
1.138488427E1,-1.579262912E-1,-9.868000984E0,-3.828516230E-2
1.139457037E1,-1.483550072E-1,-9.868000984E0,-2.871387079E-2
1.140425589E1,-1.531406492E-1,-9.877572060E0,-2.871387079E-2
1.141394141E1,-1.531406492E-1,-9.877572060E0,-3.349951655E-2
1.142362667E1,-1.435693651E-1,-9.882357597E0,-4.307080805E-2
1.143331115E1,-1.483550072E-1,-9.882357597E0,-3.828516230E-2
1.144299724E1,-1.531406492E-1,-9.891928673E0,-4.307080805E-2
1.145268443E1,-1.339980662E-1,-9.877572060E0,-3.349951655E-2
1.146237000E1,-1.339980662E-1,-9.891928673E0,-2.871387079E-2
1.147205552E1,-1.579262912E-1,-9.872786522E0,-3.828516230E-2
1.148174115E1,-1.627119333E-1,-9.872786522E0,-4.307080805E-2
1.149142714E1,-1.627119333E-1,-9.882357597E0,-2.871387079E-2
1.150111235E1,-1.483550072E-1,-9.872786522E0,-3.349951655E-2
1.151079740E1,-1.387837082E-1,-9.882357597E0,-2.871387079E-2
1.152048240E1,-1.579262912E-1,-9.882357597E0,-2.871387079E-2
1.153016735E1,-1.531406492E-1,-9.868000984E0,-3.349951655E-2
1.153985318E1,-1.387837082E-1,-9.882357597E0,-3.828516230E-2
1.154953870E1,-1.579262912E-1,-9.877572060E0,-3.349951655E-2
1.155922573E1,-1.579262912E-1,-9.868000984E0,-2.392822690E-2
1.156891115E1,-1.531406492E-1,-9.868000984E0,-3.349951655E-2
1.157859708E1,-1.579262912E-1,-9.877572060E0,-2.871387079E-2
1.158828308E1,-1.531406492E-1,-9.882357597E0,-2.871387079E-2
1.159796802E1,-1.483550072E-1,-9.887143135E0,-2.871387079E-2
1.160765287E1,-1.483550072E-1,-9.887143135E0,-3.828516230E-2
1.161733880E1,-1.435693651E-1,-9.877572060E0,-1.914258115E-2
1.162702297E1,-1.483550072E-1,-9.872786522E0,-2.871387079E-2
1.163670839E1,-1.435693651E-1,-9.872786522E0,-2.392822690E-2
1.164639198E1,-1.483550072E-1,-9.863214493E0,-3.828516230E-2
1.165607610E1,-1.674975902E-1,-9.872786522E0,-4.785645381E-2
1.166576063E1,-1.435693651E-1,-9.868000984E0,-2.392822690E-2
1.167544552E1,-1.435693651E-1,-9.882357597E0,-2.871387079E-2
1.168512995E1,-1.483550072E-1,-9.877572060E0,-3.349951655E-2
1.169481490E1,-1.531406492E-1,-9.882357597E0,-2.392822690E-2
1.170449938E1,-1.627119333E-1,-9.887143135E0,-2.392822690E-2
1.171418406E1,-1.435693651E-1,-9.872786522E0,-2.871387079E-2
1.172386917E1,-1.387837082E-1,-9.877572060E0,-2.871387079E-2
1.173355443E1,-1.435693651E-1,-9.868000984E0,-2.392822690E-2
1.174323896E1,-1.387837082E-1,-9.863214493E0,-3.828516230E-2
1.175292401E1,-1.483550072E-1,-9.872786522E0,-3.828516230E-2
1.176261042E1,-1.627119333E-1,-9.872786522E0,-3.349951655E-2
1.177229651E1,-1.435693651E-1,-9.882357597E0,-3.828516230E-2
1.178198042E1,-1.531406492E-1,-9.872786522E0,-2.871387079E-2
1.179166370E1,-1.531406492E-1,-9.887143135E0,-2.392822690E-2
1.180134813E1,-1.435693651E-1,-9.882357597E0,-2.871387079E-2
1.181103203E1,-1.579262912E-1,-9.868000984E0,-2.392822690E-2
1.182071620E1,-1.579262912E-1,-9.872786522E0,-2.871387079E-2
1.183040130E1,-1.579262912E-1,-9.863214493E0,-5.264209956E-2
1.184008636E1,-1.531406492E-1,-9.882357597E0,-4.307080805E-2
1.184977026E1,-1.579262912E-1,-9.868000984E0,-1.914258115E-2
1.185945453E1,-1.531406492E-1,-9.882357597E0,-3.828516230E-2
1.186913844E1,-1.579262912E-1,-9.877572060E0,-2.392822690E-2
1.187882224E1,-1.435693651E-1,-9.891928673E0,-2.871387079E-2
1.188850688E1,-1.339980662E-1,-9.863214493E0,-3.828516230E-2
1.189819084E1,-1.531406492E-1,-9.872786522E0,-3.828516230E-2
1.190787563E1,-1.579262912E-1,-9.882357597E0,-3.828516230E-2
1.191755995E1,-1.579262912E-1,-9.877572060E0,-2.871387079E-2
1.192724396E1,-1.435693651E-1,-9.887143135E0,-4.785645381E-2
1.193693026E1,-1.483550072E-1,-9.887143135E0,-2.871387079E-2
1.194661526E1,-1.435693651E-1,-9.877572060E0,-3.349951655E-2
1.195629974E1,-1.435693651E-1,-9.877572060E0,-1.435693540E-2
1.196598563E1,-1.387837082E-1,-9.877572060E0,-3.828516230E-2
1.197567141E1,-1.531406492E-1,-9.877572060E0,-3.349951655E-2
1.198535651E1,-1.387837082E-1,-9.872786522E0,-2.871387079E-2
1.199504287E1,-1.579262912E-1,-9.882357597E0,-2.871387079E-2
1.200472860E1,-1.579262912E-1,-9.877572060E0,-4.785645381E-2
1.201441495E1,-1.387837082E-1,-9.863214493E0,-2.871387079E-2
1.202410078E1,-1.483550072E-1,-9.877572060E0,-2.392822690E-2
1.203378500E1,-1.531406492E-1,-9.887143135E0,-2.392822690E-2
1.204346953E1,-1.435693651E-1,-9.877572060E0,-4.307080805E-2
1.205315391E1,-1.483550072E-1,-9.877572060E0,-3.828516230E-2
1.206283974E1,-1.627119333E-1,-9.872786522E0,-3.828516230E-2
1.207252490E1,-1.579262912E-1,-9.863214493E0,-2.392822690E-2
1.208220995E1,-1.483550072E-1,-9.877572060E0,-3.349951655E-2
1.209189516E1,-1.531406492E-1,-9.872786522E0,-3.828516230E-2
1.210157995E1,-1.483550072E-1,-9.872786522E0,-3.349951655E-2
1.211126636E1,-1.579262912E-1,-9.882357597E0,-2.392822690E-2
1.212095292E1,-1.531406492E-1,-9.868000984E0,-2.871387079E-2
1.213063865E1,-1.674975902E-1,-9.868000984E0,-3.828516230E-2
1.214032469E1,-1.579262912E-1,-9.872786522E0,-2.871387079E-2
1.215000948E1,-1.483550072E-1,-9.882357597E0,-3.349951655E-2
1.215969458E1,-1.435693651E-1,-9.887143135E0,-4.307080805E-2
1.216937922E1,-1.387837082E-1,-9.872786522E0,-4.307080805E-2
1.217906281E1,-1.483550072E-1,-9.872786522E0,-3.349951655E-2
1.218874724E1,-1.579262912E-1,-9.872786522E0,-3.349951655E-2
1.219843000E1,-1.387837082E-1,-9.882357597E0,-3.828516230E-2
1.220811412E1,-1.483550072E-1,-9.877572060E0,-3.349951655E-2
1.221779745E1,-1.531406492E-1,-9.872786522E0,-3.349951655E-2
1.222748078E1,-1.339980662E-1,-9.877572060E0,-2.392822690E-2
1.223716500E1,-1.435693651E-1,-9.877572060E0,-3.828516230E-2
1.224684839E1,-1.483550072E-1,-9.868000984E0,-2.871387079E-2
1.225653183E1,-1.387837082E-1,-9.872786522E0,-3.349951655E-2
1.226621584E1,-1.483550072E-1,-9.882357597E0,-3.828516230E-2
1.227590026E1,-1.531406492E-1,-9.882357597E0,-3.828516230E-2
1.228558469E1,-1.387837082E-1,-9.877572060E0,-3.828516230E-2
1.229526854E1,-1.531406492E-1,-9.877572060E0,-3.349951655E-2
1.230495271E1,-1.531406492E-1,-9.882357597E0,-3.828516230E-2
1.231463672E1,-1.531406492E-1,-9.887143135E0,-1.914258115E-2
1.232432208E1,-1.531406492E-1,-9.882357597E0,-3.828516230E-2
1.233400818E1,-1.387837082E-1,-9.868000984E0,-3.828516230E-2
1.234369188E1,-1.483550072E-1,-9.858428955E0,-3.828516230E-2
1.235337698E1,-1.531406492E-1,-9.887143135E0,-4.307080805E-2
1.236306104E1,-1.579262912E-1,-9.877572060E0,-3.349951655E-2
1.237274578E1,-1.435693651E-1,-9.877572060E0,-4.307080805E-2
1.238243110E1,-1.531406492E-1,-9.887143135E0,-3.349951655E-2
1.239211573E1,-1.579262912E-1,-9.882357597E0,-2.392822690E-2
1.240180021E1,-1.387837082E-1,-9.872786522E0,-3.349951655E-2
1.241148563E1,-1.435693651E-1,-9.896714211E0,-3.349951655E-2
1.242116906E1,-1.435693651E-1,-9.872786522E0,-3.349951655E-2
1.243085406E1,-1.531406492E-1,-9.882357597E0,-4.307080805E-2
1.244053927E1,-1.579262912E-1,-9.872786522E0,-2.871387079E-2
1.245022349E1,-1.435693651E-1,-9.877572060E0,-2.871387079E-2
1.245990828E1,-1.531406492E-1,-9.872786522E0,-3.349951655E-2
1.246959370E1,-1.627119333E-1,-9.868000984E0,-3.828516230E-2
1.247927979E1,-1.531406492E-1,-9.887143135E0,-5.742774159E-2
1.248896375E1,-1.435693651E-1,-9.877572060E0,-2.392822690E-2
1.249864969E1,-1.387837082E-1,-9.887143135E0,-3.828516230E-2
1.250833599E1,-1.579262912E-1,-9.887143135E0,-2.871387079E-2
1.251802334E1,-1.579262912E-1,-9.882357597E0,-1.914258115E-2
1.252771042E1,-1.627119333E-1,-9.872786522E0,-3.349951655E-2
1.253739511E1,-1.531406492E-1,-9.868000984E0,-2.392822690E-2
1.254708104E1,-1.579262912E-1,-9.877572060E0,-2.871387079E-2
1.255676625E1,-1.435693651E-1,-9.868000984E0,-3.828516230E-2
1.256645172E1,-1.531406492E-1,-9.882357597E0,-3.828516230E-2
1.257613813E1,-1.387837082E-1,-9.882357597E0,-4.307080805E-2
1.258582308E1,-1.579262912E-1,-9.872786522E0,-5.264209956E-2
1.259550854E1,-1.483550072E-1,-9.868000984E0,-3.828516230E-2
1.260519302E1,-1.579262912E-1,-9.877572060E0,-3.828516230E-2
1.261487714E1,-1.435693651E-1,-9.872786522E0,-2.871387079E-2
1.262456229E1,-1.579262912E-1,-9.891928673E0,-3.828516230E-2
1.263424766E1,-1.627119333E-1,-9.877572060E0,-3.828516230E-2
1.264393177E1,-1.579262912E-1,-9.882357597E0,-2.871387079E-2
1.265361656E1,-1.627119333E-1,-9.868000984E0,-3.349951655E-2
1.266330245E1,-1.435693651E-1,-9.877572060E0,-4.307080805E-2
1.267298542E1,-1.531406492E-1,-9.872786522E0,-3.349951655E-2
1.268267037E1,-1.579262912E-1,-9.887143135E0,-4.307080805E-2
1.269235552E1,-1.579262912E-1,-9.887143135E0,-1.914258115E-2
1.270204115E1,-1.627119333E-1,-9.877572060E0,-2.392822690E-2
1.271172547E1,-1.483550072E-1,-9.877572060E0,-3.349951655E-2
1.272140875E1,-1.531406492E-1,-9.877572060E0,-1.914258115E-2
1.273109500E1,-1.627119333E-1,-9.863214493E0,-2.871387079E-2
1.274077990E1,-1.579262912E-1,-9.868000984E0,-4.307080805E-2
1.275046656E1,-1.531406492E-1,-9.863214493E0,-4.307080805E-2
1.276015177E1,-1.531406492E-1,-9.877572060E0,-2.392822690E-2
1.276983656E1,-1.483550072E-1,-9.882357597E0,-5.264209956E-2
1.277952172E1,-1.674975902E-1,-9.896714211E0,-2.871387079E-2
1.278920745E1,-1.627119333E-1,-9.868000984E0,-3.349951655E-2
1.279889339E1,-1.531406492E-1,-9.863214493E0,-3.349951655E-2
1.280857839E1,-1.627119333E-1,-9.906285286E0,-4.307080805E-2
1.281826406E1,-1.387837082E-1,-9.882357597E0,-2.392822690E-2
1.282794953E1,-1.579262912E-1,-9.891928673E0,-3.349951655E-2
1.283763547E1,-1.674975902E-1,-9.872786522E0,-2.871387079E-2
1.284732193E1,-1.627119333E-1,-9.877572060E0,-4.785645381E-2
1.285700724E1,-1.531406492E-1,-9.868000984E0,-3.349951655E-2
1.286669224E1,-1.579262912E-1,-9.868000984E0,-2.871387079E-2
1.287637927E1,-1.435693651E-1,-9.868000984E0,-3.828516230E-2
1.288606485E1,-1.483550072E-1,-9.872786522E0,-4.307080805E-2
1.289575068E1,-1.674975902E-1,-9.872786522E0,-1.435693540E-2
1.290543761E1,-1.579262912E-1,-9.868000984E0,-4.307080805E-2
1.291512177E1,-1.483550072E-1,-9.863214493E0,-2.392822690E-2
1.292480651E1,-1.579262912E-1,-9.882357597E0,-3.828516230E-2
1.293449219E1,-1.339980662E-1,-9.887143135E0,-4.785645381E-2
1.294417724E1,-1.531406492E-1,-9.877572060E0,-3.828516230E-2
1.295386302E1,-1.579262912E-1,-9.882357597E0,-4.307080805E-2
1.296354828E1,-1.627119333E-1,-9.877572060E0,-3.349951655E-2
1.297323328E1,-1.674975902E-1,-9.872786522E0,-3.349951655E-2
1.298291865E1,-1.483550072E-1,-9.891928673E0,-3.349951655E-2
1.299260344E1,-1.435693651E-1,-9.877572060E0,-3.828516230E-2
1.300228813E1,-1.531406492E-1,-9.882357597E0,-3.349951655E-2
1.301197360E1,-1.579262912E-1,-9.868000984E0,-3.828516230E-2
1.302165964E1,-1.531406492E-1,-9.887143135E0,-2.871387079E-2
1.303134443E1,-1.531406492E-1,-9.882357597E0,-3.828516230E-2
1.304102891E1,-1.627119333E-1,-9.872786522E0,-3.349951655E-2
1.305071235E1,-1.531406492E-1,-9.872786522E0,-2.392822690E-2
1.306039703E1,-1.579262912E-1,-9.887143135E0,-2.871387079E-2
1.307008276E1,-1.483550072E-1,-9.887143135E0,-2.392822690E-2
1.307976933E1,-1.674975902E-1,-9.872786522E0,-3.349951655E-2
1.308945485E1,-1.531406492E-1,-9.872786522E0,-2.871387079E-2
1.309913917E1,-1.674975902E-1,-9.868000984E0,-2.392822690E-2
1.310882412E1,-1.435693651E-1,-9.877572060E0,-2.871387079E-2
1.311850917E1,-1.483550072E-1,-9.863214493E0,-4.307080805E-2
1.312819505E1,-1.531406492E-1,-9.887143135E0,-4.785645381E-2
1.313788000E1,-1.579262912E-1,-9.863214493E0,-3.828516230E-2
1.314756568E1,-1.531406492E-1,-9.863214493E0,-4.307080805E-2
1.315725281E1,-1.579262912E-1,-9.872786522E0,-3.828516230E-2
1.316693787E1,-1.674975902E-1,-9.877572060E0,-3.828516230E-2
1.317662203E1,-1.483550072E-1,-9.877572060E0,-2.392822690E-2
1.318630917E1,-1.579262912E-1,-9.891928673E0,-3.828516230E-2
1.319599521E1,-1.674975902E-1,-9.863214493E0,-3.349951655E-2
1.320567953E1,-1.531406492E-1,-9.868000984E0,-4.307080805E-2
1.321536344E1,-1.483550072E-1,-9.877572060E0,-2.871387079E-2
1.322504943E1,-1.579262912E-1,-9.882357597E0,-5.264209956E-2
1.323473406E1,-1.579262912E-1,-9.882357597E0,-4.307080805E-2
1.324441906E1,-1.483550072E-1,-9.863214493E0,-4.307080805E-2
1.325410537E1,-1.339980662E-1,-9.872786522E0,-3.349951655E-2
1.326379021E1,-1.674975902E-1,-9.877572060E0,-4.785645381E-2
1.327347370E1,-1.435693651E-1,-9.872786522E0,-3.828516230E-2
1.328315755E1,-1.627119333E-1,-9.872786522E0,-3.828516230E-2
1.329284125E1,-1.531406492E-1,-9.891928673E0,-3.828516230E-2
1.330252656E1,-1.483550072E-1,-9.872786522E0,-2.871387079E-2
1.331220985E1,-1.483550072E-1,-9.868000984E0,-2.871387079E-2
1.332189365E1,-1.531406492E-1,-9.863214493E0,-2.871387079E-2
1.333157906E1,-1.483550072E-1,-9.868000984E0,-3.828516230E-2
1.334126360E1,-1.531406492E-1,-9.863214493E0,-3.828516230E-2
1.335094943E1,-1.531406492E-1,-9.882357597E0,-3.828516230E-2
1.336063438E1,-1.387837082E-1,-9.872786522E0,-3.349951655E-2
1.337031969E1,-1.435693651E-1,-9.872786522E0,-2.871387079E-2
1.338000422E1,-1.435693651E-1,-9.887143135E0,-3.349951655E-2
1.338968870E1,-1.387837082E-1,-9.882357597E0,-4.307080805E-2
1.339937495E1,-1.483550072E-1,-9.872786522E0,-3.349951655E-2
1.340905813E1,-1.483550072E-1,-9.877572060E0,-3.828516230E-2
1.341874287E1,-1.579262912E-1,-9.872786522E0,-2.392822690E-2
1.342842875E1,-1.483550072E-1,-9.877572060E0,-3.828516230E-2
1.343811349E1,-1.531406492E-1,-9.882357597E0,-4.785645381E-2
1.344779891E1,-1.579262912E-1,-9.887143135E0,-4.307080805E-2
1.345748308E1,-1.483550072E-1,-9.887143135E0,-2.392822690E-2
1.346716865E1,-1.483550072E-1,-9.887143135E0,-4.307080805E-2
1.347685396E1,-1.674975902E-1,-9.891928673E0,-3.828516230E-2
1.348653849E1,-1.387837082E-1,-9.872786522E0,-3.828516230E-2
1.349622151E1,-1.627119333E-1,-9.877572060E0,-2.871387079E-2
1.350590703E1,-1.531406492E-1,-9.882357597E0,-3.349951655E-2
1.351559302E1,-1.627119333E-1,-9.872786522E0,-2.871387079E-2
1.352527933E1,-1.483550072E-1,-9.877572060E0,-3.349951655E-2
1.353496448E1,-1.387837082E-1,-9.872786522E0,-3.349951655E-2
1.354465031E1,-1.292124242E-1,-9.882357597E0,-3.349951655E-2
1.355433495E1,-1.483550072E-1,-9.868000984E0,-2.871387079E-2
1.356402177E1,-1.435693651E-1,-9.882357597E0,-4.785645381E-2
1.357370802E1,-1.579262912E-1,-9.891928673E0,-3.349951655E-2
1.358339349E1,-1.483550072E-1,-9.887143135E0,-2.871387079E-2
1.359307979E1,-1.627119333E-1,-9.882357597E0,-3.828516230E-2
1.360276422E1,-1.674975902E-1,-9.887143135E0,-2.392822690E-2
1.361245047E1,-1.483550072E-1,-9.877572060E0,-4.785645381E-2
1.362213485E1,-1.627119333E-1,-9.872786522E0,-2.392822690E-2
1.363181854E1,-1.674975902E-1,-9.887143135E0,-2.392822690E-2
1.364150308E1,-1.531406492E-1,-9.877572060E0,-3.349951655E-2
1.365118828E1,-1.483550072E-1,-9.877572060E0,-3.828516230E-2
1.366087255E1,-1.531406492E-1,-9.882357597E0,-3.349951655E-2
1.367055630E1,-1.483550072E-1,-9.868000984E0,-4.785645381E-2
1.368024120E1,-1.579262912E-1,-9.882357597E0,-4.785645381E-2
1.368992511E1,-1.531406492E-1,-9.887143135E0,-3.349951655E-2
1.369961026E1,-1.531406492E-1,-9.872786522E0,-3.828516230E-2
1.370929500E1,-1.435693651E-1,-9.877572060E0,-3.828516230E-2
1.371898073E1,-1.579262912E-1,-9.877572060E0,-2.871387079E-2
1.372866630E1,-1.531406492E-1,-9.877572060E0,-2.392822690E-2
1.373835203E1,-1.579262912E-1,-9.872786522E0,-2.871387079E-2
1.374803771E1,-1.435693651E-1,-9.882357597E0,-3.828516230E-2
1.375772188E1,-1.483550072E-1,-9.882357597E0,-3.828516230E-2
1.376740688E1,-1.387837082E-1,-9.877572060E0,-3.349951655E-2
1.377709328E1,-1.483550072E-1,-9.872786522E0,-3.349951655E-2
1.378677776E1,-1.627119333E-1,-9.868000984E0,-3.828516230E-2
1.379646313E1,-1.483550072E-1,-9.882357597E0,-2.871387079E-2
1.380614750E1,-1.531406492E-1,-9.877572060E0,-4.307080805E-2
1.381583427E1,-1.579262912E-1,-9.872786522E0,-3.828516230E-2
1.382551818E1,-1.435693651E-1,-9.882357597E0,-3.349951655E-2
1.383520308E1,-1.483550072E-1,-9.882357597E0,-2.871387079E-2
1.384488943E1,-1.579262912E-1,-9.868000984E0,-3.828516230E-2
1.385457537E1,-1.579262912E-1,-9.868000984E0,-3.349951655E-2
1.386425912E1,-1.531406492E-1,-9.868000984E0,-2.871387079E-2
1.387394245E1,-1.339980662E-1,-9.877572060E0,-3.828516230E-2
1.388362662E1,-1.435693651E-1,-9.858428955E0,-3.828516230E-2
1.389331224E1,-1.339980662E-1,-9.877572060E0,-3.828516230E-2
1.390299828E1,-1.531406492E-1,-9.877572060E0,-3.828516230E-2
1.391268500E1,-1.579262912E-1,-9.887143135E0,-4.785645381E-2
1.392236875E1,-1.531406492E-1,-9.887143135E0,-5.264209956E-2
1.393205308E1,-1.483550072E-1,-9.887143135E0,-3.828516230E-2
1.394173755E1,-1.387837082E-1,-9.863214493E0,-3.349951655E-2
1.395142250E1,-1.579262912E-1,-9.891928673E0,-3.828516230E-2
1.396110662E1,-1.483550072E-1,-9.882357597E0,-3.828516230E-2
1.397079167E1,-1.531406492E-1,-9.882357597E0,-3.828516230E-2
1.398047662E1,-1.531406492E-1,-9.882357597E0,-3.349951655E-2
1.399016172E1,-1.531406492E-1,-9.882357597E0,-4.785645381E-2
1.399984625E1,-1.579262912E-1,-9.882357597E0,-2.871387079E-2
1.400952979E1,-1.483550072E-1,-9.877572060E0,-4.785645381E-2
1.401921432E1,-1.531406492E-1,-9.877572060E0,-4.307080805E-2
1.402889839E1,-1.627119333E-1,-9.882357597E0,-4.307080805E-2
1.403858198E1,-1.483550072E-1,-9.877572060E0,-4.307080805E-2
1.404826667E1,-1.435693651E-1,-9.872786522E0,-2.871387079E-2
1.405795156E1,-1.722832322E-1,-9.882357597E0,-4.307080805E-2
1.406763406E1,-1.483550072E-1,-9.872786522E0,-3.349951655E-2
1.407731714E1,-1.531406492E-1,-9.877572060E0,-3.349951655E-2
1.408700214E1,-1.627119333E-1,-9.877572060E0,-2.871387079E-2
1.409668646E1,-1.483550072E-1,-9.882357597E0,-3.828516230E-2
1.410637203E1,-1.627119333E-1,-9.877572060E0,-3.828516230E-2
1.411605813E1,-1.387837082E-1,-9.896714211E0,-1.435693540E-2
1.412574261E1,-1.579262912E-1,-9.877572060E0,-3.349951655E-2
1.413542735E1,-1.483550072E-1,-9.877572060E0,-2.871387079E-2
1.414511209E1,-1.531406492E-1,-9.872786522E0,-2.871387079E-2
1.415479459E1,-1.579262912E-1,-9.877572060E0,-3.349951655E-2
1.416447802E1,-1.531406492E-1,-9.872786522E0,-3.828516230E-2
1.417416120E1,-1.579262912E-1,-9.887143135E0,-1.914258115E-2
1.418384563E1,-1.387837082E-1,-9.863214493E0,-3.828516230E-2
1.419353037E1,-1.483550072E-1,-9.877572060E0,-4.307080805E-2
1.420321474E1,-1.435693651E-1,-9.877572060E0,-3.349951655E-2
1.421289844E1,-1.579262912E-1,-9.868000984E0,-4.307080805E-2
1.422258271E1,-1.435693651E-1,-9.877572060E0,-3.349951655E-2
1.423226735E1,-1.531406492E-1,-9.863214493E0,-3.828516230E-2
1.424195146E1,-1.579262912E-1,-9.872786522E0,-3.349951655E-2
1.425163630E1,-1.627119333E-1,-9.882357597E0,-2.871387079E-2
1.426132052E1,-1.531406492E-1,-9.872786522E0,-1.914258115E-2
1.427100406E1,-1.579262912E-1,-9.872786522E0,-4.307080805E-2
1.428068745E1,-1.627119333E-1,-9.872786522E0,-5.264209956E-2
1.429037271E1,-1.579262912E-1,-9.891928673E0,-4.307080805E-2
1.430005677E1,-1.339980662E-1,-9.882357597E0,-5.264209956E-2
1.430974151E1,-1.387837082E-1,-9.877572060E0,-4.785645381E-2
1.431942573E1,-1.579262912E-1,-9.853643417E0,-2.871387079E-2
1.432910849E1,-1.387837082E-1,-9.877572060E0,-4.307080805E-2
1.433879292E1,-1.531406492E-1,-9.891928673E0,-2.871387079E-2
1.434847693E1,-1.531406492E-1,-9.872786522E0,-2.871387079E-2
1.435816078E1,-1.435693651E-1,-9.877572060E0,-3.828516230E-2
1.436784479E1,-1.339980662E-1,-9.877572060E0,-5.264209956E-2
1.437752886E1,-1.435693651E-1,-9.868000984E0,-3.349951655E-2
1.438721313E1,-1.627119333E-1,-9.882357597E0,-2.871387079E-2
1.439689906E1,-1.435693651E-1,-9.877572060E0,-5.264209956E-2
1.440658401E1,-1.387837082E-1,-9.868000984E0,-2.871387079E-2
1.441626750E1,-1.531406492E-1,-9.882357597E0,-3.349951655E-2
1.442595162E1,-1.579262912E-1,-9.877572060E0,-3.828516230E-2
1.443563625E1,-1.674975902E-1,-9.877572060E0,-2.871387079E-2
1.444532011E1,-1.483550072E-1,-9.887143135E0,-3.349951655E-2
1.445500526E1,-1.531406492E-1,-9.877572060E0,-3.349951655E-2
1.446469005E1,-1.387837082E-1,-9.872786522E0,-3.349951655E-2
1.447437558E1,-1.483550072E-1,-9.877572060E0,-3.828516230E-2
1.448406000E1,-1.483550072E-1,-9.882357597E0,-3.828516230E-2
1.449374448E1,-1.435693651E-1,-9.877572060E0,-3.349951655E-2
1.450343021E1,-1.483550072E-1,-9.887143135E0,-3.349951655E-2
1.451311615E1,-1.435693651E-1,-9.872786522E0,-4.307080805E-2
1.452280172E1,-1.483550072E-1,-9.887143135E0,-3.349951655E-2
1.453248547E1,-1.531406492E-1,-9.877572060E0,-4.785645381E-2
1.454216964E1,-1.579262912E-1,-9.877572060E0,-3.349951655E-2
1.455185448E1,-1.339980662E-1,-9.882357597E0,-1.914258115E-2
1.456153755E1,-1.387837082E-1,-9.863214493E0,-2.871387079E-2
1.457122297E1,-1.579262912E-1,-9.868000984E0,-4.307080805E-2
1.458090724E1,-1.579262912E-1,-9.877572060E0,-3.349951655E-2
1.459059052E1,-1.531406492E-1,-9.877572060E0,-2.871387079E-2
1.460027432E1,-1.387837082E-1,-9.882357597E0,-1.914258115E-2
1.460995938E1,-1.483550072E-1,-9.891928673E0,-3.349951655E-2
1.461964235E1,-1.531406492E-1,-9.877572060E0,-4.307080805E-2
1.462932761E1,-1.387837082E-1,-9.896714211E0,-3.828516230E-2
1.463901313E1,-1.339980662E-1,-9.887143135E0,-3.349951655E-2
1.464869844E1,-1.674975902E-1,-9.868000984E0,-1.435693540E-2
1.465838318E1,-1.435693651E-1,-9.872786522E0,-2.871387079E-2
1.466806667E1,-1.435693651E-1,-9.872786522E0,-4.307080805E-2
1.467775104E1,-1.435693651E-1,-9.882357597E0,-4.307080805E-2
1.468743474E1,-1.435693651E-1,-9.887143135E0,-1.914258115E-2
1.469711964E1,-1.483550072E-1,-9.882357597E0,-1.435693540E-2
1.470680162E1,-1.579262912E-1,-9.872786522E0,-2.871387079E-2
1.471648615E1,-1.483550072E-1,-9.877572060E0,-3.828516230E-2
1.472617073E1,-1.627119333E-1,-9.877572060E0,-2.871387079E-2
1.473585505E1,-1.531406492E-1,-9.868000984E0,-3.349951655E-2
1.474553922E1,-1.531406492E-1,-9.858428955E0,-2.871387079E-2
1.475522339E1,-1.531406492E-1,-9.868000984E0,-4.785645381E-2
1.476490714E1,-1.387837082E-1,-9.887143135E0,-4.307080805E-2
1.477459031E1,-1.483550072E-1,-9.887143135E0,-2.392822690E-2
1.478427458E1,-1.435693651E-1,-9.882357597E0,-2.871387079E-2
1.479396026E1,-1.435693651E-1,-9.868000984E0,-3.828516230E-2
1.480364391E1,-1.483550072E-1,-9.872786522E0,-4.307080805E-2
1.481332917E1,-1.483550072E-1,-9.887143135E0,-3.349951655E-2
1.482301443E1,-1.483550072E-1,-9.877572060E0,-3.349951655E-2
1.483270047E1,-1.531406492E-1,-9.872786522E0,-2.392822690E-2
1.484238391E1,-1.435693651E-1,-9.868000984E0,-3.828516230E-2
1.485206761E1,-1.435693651E-1,-9.872786522E0,-4.785645381E-2
1.486175219E1,-1.531406492E-1,-9.891928673E0,-4.785645381E-2
1.487143698E1,-1.483550072E-1,-9.868000984E0,-3.349951655E-2
1.488112245E1,-1.531406492E-1,-9.863214493E0,-2.871387079E-2
1.489080766E1,-1.435693651E-1,-9.872786522E0,-2.871387079E-2
1.490049177E1,-1.627119333E-1,-9.882357597E0,-2.871387079E-2
1.491017537E1,-1.435693651E-1,-9.872786522E0,-3.349951655E-2
1.491985948E1,-1.483550072E-1,-9.877572060E0,-3.349951655E-2
1.492954412E1,-1.483550072E-1,-9.872786522E0,-3.828516230E-2
1.493922839E1,-1.387837082E-1,-9.877572060E0,-2.392822690E-2
1.494891432E1,-1.435693651E-1,-9.882357597E0,-4.307080805E-2
1.495859740E1,-1.531406492E-1,-9.872786522E0,-2.392822690E-2
1.496828198E1,-1.435693651E-1,-9.872786522E0,-4.307080805E-2
1.497796683E1,-1.387837082E-1,-9.872786522E0,-2.871387079E-2
1.498765188E1,-1.579262912E-1,-9.877572060E0,-3.349951655E-2
1.499733578E1,-1.483550072E-1,-9.887143135E0,-3.828516230E-2
1.500702011E1,-1.579262912E-1,-9.872786522E0,-3.349951655E-2
1.501670391E1,-1.531406492E-1,-9.882357597E0,-3.349951655E-2
1.502638662E1,-1.674975902E-1,-9.887143135E0,-3.828516230E-2
1.503606985E1,-1.627119333E-1,-9.882357597E0,-2.871387079E-2
1.504575334E1,-1.531406492E-1,-9.877572060E0,-1.914258115E-2
1.505543656E1,-1.387837082E-1,-9.868000984E0,-3.349951655E-2
1.506512000E1,-1.531406492E-1,-9.868000984E0,-2.392822690E-2
1.507480308E1,-1.435693651E-1,-9.868000984E0,-3.349951655E-2
1.508448750E1,-1.531406492E-1,-9.882357597E0,-3.349951655E-2
1.509417115E1,-1.435693651E-1,-9.872786522E0,-2.392822690E-2
1.510385464E1,-1.579262912E-1,-9.868000984E0,-4.785645381E-2
1.511353834E1,-1.483550072E-1,-9.877572060E0,-2.392822690E-2
1.512322104E1,-1.579262912E-1,-9.872786522E0,-2.871387079E-2
1.513290360E1,-1.627119333E-1,-9.891928673E0,-3.828516230E-2
1.514258828E1,-1.579262912E-1,-9.868000984E0,-3.349951655E-2
1.515227287E1,-1.531406492E-1,-9.882357597E0,-4.307080805E-2
1.516195547E1,-1.483550072E-1,-9.877572060E0,-4.307080805E-2
1.517163974E1,-1.483550072E-1,-9.877572060E0,-4.307080805E-2
1.518132276E1,-1.531406492E-1,-9.872786522E0,-3.828516230E-2
1.519100693E1,-1.579262912E-1,-9.877572060E0,-3.828516230E-2
1.520069042E1,-1.483550072E-1,-9.891928673E0,-3.828516230E-2
1.521037443E1,-1.483550072E-1,-9.891928673E0,-4.307080805E-2
1.522005735E1,-1.435693651E-1,-9.882357597E0,-3.828516230E-2
1.522974188E1,-1.483550072E-1,-9.882357597E0,-3.349951655E-2
1.523942568E1,-1.483550072E-1,-9.872786522E0,-2.392822690E-2
1.524910875E1,-1.579262912E-1,-9.868000984E0,-5.264209956E-2
1.525879224E1,-1.483550072E-1,-9.882357597E0,-2.871387079E-2
1.526847479E1,-1.531406492E-1,-9.872786522E0,-4.785645381E-2
1.527815906E1,-1.579262912E-1,-9.872786522E0,-5.264209956E-2
1.528784297E1,-1.531406492E-1,-9.872786522E0,-2.871387079E-2
1.529752589E1,-1.483550072E-1,-9.887143135E0,-3.828516230E-2
1.530720979E1,-1.627119333E-1,-9.868000984E0,-2.871387079E-2
1.531689334E1,-1.483550072E-1,-9.877572060E0,-3.828516230E-2
1.532657927E1,-1.387837082E-1,-9.863214493E0,-3.828516230E-2
1.533626370E1,-1.387837082E-1,-9.882357597E0,-4.307080805E-2
1.534594740E1,-1.483550072E-1,-9.877572060E0,-3.828516230E-2
1.535563063E1,-1.531406492E-1,-9.868000984E0,-3.828516230E-2
1.536531422E1,-1.579262912E-1,-9.868000984E0,-2.392822690E-2
1.537499959E1,-1.531406492E-1,-9.872786522E0,-2.871387079E-2
1.538468349E1,-1.579262912E-1,-9.858428955E0,-3.828516230E-2
1.539436839E1,-1.483550072E-1,-9.877572060E0,-3.828516230E-2
1.540405245E1,-1.435693651E-1,-9.863214493E0,-3.349951655E-2
1.541373771E1,-1.531406492E-1,-9.882357597E0,-2.392822690E-2
1.542342182E1,-1.483550072E-1,-9.872786522E0,-3.349951655E-2
1.543310578E1,-1.531406492E-1,-9.882357597E0,-3.828516230E-2
1.544279052E1,-1.387837082E-1,-9.872786522E0,-3.349951655E-2
1.545247604E1,-1.435693651E-1,-9.868000984E0,-3.828516230E-2
1.546216104E1,-1.483550072E-1,-9.887143135E0,-3.349951655E-2
1.547184516E1,-1.579262912E-1,-9.882357597E0,-3.349951655E-2
1.548153000E1,-1.531406492E-1,-9.887143135E0,-4.307080805E-2
1.549121443E1,-1.531406492E-1,-9.877572060E0,-3.349951655E-2
1.550089891E1,-1.627119333E-1,-9.877572060E0,-3.349951655E-2
1.551058417E1,-1.483550072E-1,-9.882357597E0,-3.349951655E-2
1.552026896E1,-1.770688742E-1,-9.858428955E0,-4.307080805E-2
1.552995318E1,-1.579262912E-1,-9.877572060E0,-4.307080805E-2
1.553963844E1,-1.579262912E-1,-9.877572060E0,-3.349951655E-2
1.554932276E1,-1.531406492E-1,-9.882357597E0,-4.307080805E-2
1.555900719E1,-1.627119333E-1,-9.868000984E0,-4.307080805E-2
1.556869084E1,-1.435693651E-1,-9.877572060E0,-3.349951655E-2
1.557837578E1,-1.483550072E-1,-9.868000984E0,-3.349951655E-2
1.558806000E1,-1.579262912E-1,-9.887143135E0,-3.349951655E-2
1.559774589E1,-1.627119333E-1,-9.872786522E0,-2.871387079E-2
1.560743177E1,-1.531406492E-1,-9.872786522E0,-3.828516230E-2
1.561711729E1,-1.531406492E-1,-9.891928673E0,-2.871387079E-2
1.562680266E1,-1.483550072E-1,-9.882357597E0,-3.349951655E-2
1.563648787E1,-1.579262912E-1,-9.882357597E0,-3.828516230E-2
1.564617130E1,-1.483550072E-1,-9.887143135E0,-3.828516230E-2
1.565585573E1,-1.483550072E-1,-9.882357597E0,-3.349951655E-2
1.566553917E1,-1.387837082E-1,-9.868000984E0,-2.871387079E-2
1.567522328E1,-1.674975902E-1,-9.877572060E0,-2.871387079E-2
1.568490584E1,-1.531406492E-1,-9.877572060E0,-3.828516230E-2
1.569458912E1,-1.387837082E-1,-9.887143135E0,-3.828516230E-2
1.570427203E1,-1.579262912E-1,-9.872786522E0,-3.828516230E-2
1.571395412E1,-1.387837082E-1,-9.887143135E0,-1.914258115E-2
1.572363797E1,-1.483550072E-1,-9.863214493E0,-2.871387079E-2
1.573332115E1,-1.387837082E-1,-9.872786522E0,-3.828516230E-2
1.574300573E1,-1.483550072E-1,-9.882357597E0,-2.392822690E-2
1.575268964E1,-1.579262912E-1,-9.891928673E0,-2.871387079E-2
1.576237500E1,-1.579262912E-1,-9.872786522E0,-1.435693540E-2
1.577206063E1,-1.387837082E-1,-9.872786522E0,-4.307080805E-2
1.578174558E1,-1.483550072E-1,-9.877572060E0,-2.871387079E-2
1.579143037E1,-1.387837082E-1,-9.887143135E0,-2.871387079E-2
1.580111604E1,-1.531406492E-1,-9.882357597E0,-3.828516230E-2
1.581080104E1,-1.531406492E-1,-9.872786522E0,-3.828516230E-2
1.582048578E1,-1.387837082E-1,-9.872786522E0,-3.828516230E-2
1.583017016E1,-1.435693651E-1,-9.868000984E0,-4.307080805E-2
1.583985448E1,-1.483550072E-1,-9.863214493E0,-4.307080805E-2
1.584953750E1,-1.387837082E-1,-9.877572060E0,-3.828516230E-2
1.585922136E1,-1.435693651E-1,-9.882357597E0,-2.871387079E-2
1.586890589E1,-1.435693651E-1,-9.872786522E0,-3.828516230E-2
1.587858938E1,-1.531406492E-1,-9.877572060E0,-4.785645381E-2
1.588827433E1,-1.627119333E-1,-9.882357597E0,-3.349951655E-2
1.589795938E1,-1.531406492E-1,-9.872786522E0,-3.349951655E-2
1.590764438E1,-1.339980662E-1,-9.891928673E0,-4.307080805E-2
1.591732828E1,-1.339980662E-1,-9.872786522E0,-3.828516230E-2
1.592701328E1,-1.435693651E-1,-9.887143135E0,-3.349951655E-2
1.593669755E1,-1.435693651E-1,-9.868000984E0,-2.392822690E-2
1.594638203E1,-1.531406492E-1,-9.868000984E0,-3.349951655E-2
1.595606500E1,-1.483550072E-1,-9.882357597E0,-2.871387079E-2
1.596574834E1,-1.435693651E-1,-9.882357597E0,-3.349951655E-2
1.597543245E1,-1.531406492E-1,-9.872786522E0,-3.349951655E-2
1.598511589E1,-1.483550072E-1,-9.868000984E0,-2.392822690E-2
1.599480073E1,-1.579262912E-1,-9.882357597E0,-3.349951655E-2
1.600448464E1,-1.579262912E-1,-9.877572060E0,-4.307080805E-2
1.601416818E1,-1.531406492E-1,-9.863214493E0,-3.349951655E-2
1.602385271E1,-1.579262912E-1,-9.882357597E0,-3.349951655E-2
1.603353656E1,-1.627119333E-1,-9.868000984E0,-3.349951655E-2
1.604322021E1,-1.674975902E-1,-9.858428955E0,-3.349951655E-2
1.605290464E1,-1.387837082E-1,-9.868000984E0,-3.349951655E-2
1.606258849E1,-1.627119333E-1,-9.877572060E0,-3.349951655E-2
1.607227219E1,-1.627119333E-1,-9.882357597E0,-3.349951655E-2
1.608195636E1,-1.435693651E-1,-9.868000984E0,-2.871387079E-2
1.609163979E1,-1.674975902E-1,-9.882357597E0,-3.349951655E-2
1.610132469E1,-1.531406492E-1,-9.882357597E0,-3.349951655E-2
1.611100860E1,-1.579262912E-1,-9.877572060E0,-1.914258115E-2
1.612069208E1,-1.483550072E-1,-9.863214493E0,-3.828516230E-2
1.613037625E1,-1.387837082E-1,-9.863214493E0,-4.307080805E-2
1.614006063E1,-1.483550072E-1,-9.868000984E0,-3.349951655E-2
1.614974438E1,-1.435693651E-1,-9.882357597E0,-2.871387079E-2
1.615942818E1,-1.531406492E-1,-9.868000984E0,-3.828516230E-2
1.616911245E1,-1.579262912E-1,-9.868000984E0,-3.828516230E-2
1.617879797E1,-1.483550072E-1,-9.872786522E0,-3.349951655E-2
1.618848208E1,-1.435693651E-1,-9.872786522E0,-4.307080805E-2
1.619816594E1,-1.531406492E-1,-9.872786522E0,-4.307080805E-2
1.620784932E1,-1.339980662E-1,-9.868000984E0,-4.307080805E-2
1.621753302E1,-1.531406492E-1,-9.872786522E0,-4.307080805E-2
1.622721505E1,-1.579262912E-1,-9.868000984E0,-3.828516230E-2
1.623689995E1,-1.483550072E-1,-9.882357597E0,-3.349951655E-2
1.624658464E1,-1.531406492E-1,-9.868000984E0,-2.871387079E-2
1.625626927E1,-1.483550072E-1,-9.877572060E0,-2.392822690E-2
1.626595224E1,-1.531406492E-1,-9.863214493E0,-2.871387079E-2
1.627563703E1,-1.579262912E-1,-9.887143135E0,-2.871387079E-2
1.628532198E1,-1.483550072E-1,-9.877572060E0,-3.349951655E-2
1.629500719E1,-1.483550072E-1,-9.877572060E0,-2.392822690E-2
1.630469084E1,-1.531406492E-1,-9.877572060E0,-3.349951655E-2
1.631437469E1,-1.531406492E-1,-9.877572060E0,-1.914258115E-2
1.632405870E1,-1.483550072E-1,-9.872786522E0,-3.349951655E-2
1.633374203E1,-1.483550072E-1,-9.891928673E0,-3.349951655E-2
1.634342682E1,-1.579262912E-1,-9.868000984E0,-2.871387079E-2
1.635311130E1,-1.627119333E-1,-9.887143135E0,-3.349951655E-2
1.636279604E1,-1.483550072E-1,-9.863214493E0,-1.914258115E-2
1.637247953E1,-1.627119333E-1,-9.872786522E0,-4.307080805E-2
1.638216438E1,-1.531406492E-1,-9.863214493E0,-2.871387079E-2
1.639184865E1,-1.531406492E-1,-9.877572060E0,-2.871387079E-2
1.640153287E1,-1.674975902E-1,-9.887143135E0,-2.392822690E-2
1.641121620E1,-1.435693651E-1,-9.872786522E0,-3.828516230E-2
1.642089917E1,-1.435693651E-1,-9.872786522E0,-3.828516230E-2
1.643058276E1,-1.435693651E-1,-9.882357597E0,-2.392822690E-2
1.644026766E1,-1.579262912E-1,-9.877572060E0,-2.871387079E-2
1.644995047E1,-1.627119333E-1,-9.872786522E0,-3.828516230E-2
1.645963339E1,-1.435693651E-1,-9.882357597E0,-2.871387079E-2
1.646931719E1,-1.531406492E-1,-9.863214493E0,-2.871387079E-2
1.647900021E1,-1.387837082E-1,-9.887143135E0,-2.392822690E-2
1.648868287E1,-1.483550072E-1,-9.882357597E0,-3.349951655E-2
1.649836667E1,-1.531406492E-1,-9.891928673E0,-4.785645381E-2
1.650804823E1,-1.674975902E-1,-9.872786522E0,-3.828516230E-2
1.651773125E1,-1.483550072E-1,-9.872786522E0,-1.914258115E-2
1.652741339E1,-1.579262912E-1,-9.877572060E0,-3.349951655E-2
1.653709776E1,-1.579262912E-1,-9.863214493E0,-4.307080805E-2
1.654678235E1,-1.483550072E-1,-9.877572060E0,-2.871387079E-2
1.655646558E1,-1.483550072E-1,-9.891928673E0,-3.349951655E-2
1.656614761E1,-1.579262912E-1,-9.868000984E0,-1.914258115E-2
1.657583219E1,-1.483550072E-1,-9.877572060E0,-4.785645381E-2
1.658551558E1,-1.531406492E-1,-9.887143135E0,-2.871387079E-2
1.659519901E1,-1.483550072E-1,-9.868000984E0,-3.349951655E-2
1.660488339E1,-1.435693651E-1,-9.891928673E0,-2.392822690E-2
1.661456719E1,-1.531406492E-1,-9.877572060E0,-3.349951655E-2
1.662425026E1,-1.435693651E-1,-9.877572060E0,-3.349951655E-2
1.663393250E1,-1.339980662E-1,-9.868000984E0,-1.914258115E-2
1.664361630E1,-1.435693651E-1,-9.887143135E0,-2.871387079E-2
1.665329865E1,-1.435693651E-1,-9.887143135E0,-3.349951655E-2
1.666298188E1,-1.435693651E-1,-9.872786522E0,-2.871387079E-2
1.667266490E1,-1.483550072E-1,-9.868000984E0,-4.307080805E-2
1.668234787E1,-1.435693651E-1,-9.882357597E0,-1.914258115E-2
1.669203276E1,-1.531406492E-1,-9.877572060E0,-1.914258115E-2
1.670171766E1,-1.483550072E-1,-9.872786522E0,-2.871387079E-2
1.671140198E1,-1.387837082E-1,-9.877572060E0,-2.871387079E-2
1.672108625E1,-1.483550072E-1,-9.882357597E0,-3.349951655E-2
1.673077136E1,-1.387837082E-1,-9.868000984E0,-2.392822690E-2
1.674045495E1,-1.627119333E-1,-9.882357597E0,-2.392822690E-2
1.675013969E1,-1.531406492E-1,-9.877572060E0,-3.349951655E-2
1.675982521E1,-1.435693651E-1,-9.872786522E0,-3.349951655E-2
1.676950880E1,-1.627119333E-1,-9.868000984E0,-2.871387079E-2
1.677919209E1,-1.627119333E-1,-9.868000984E0,-9.571290575E-3
1.678887630E1,-1.483550072E-1,-9.882357597E0,-1.914258115E-2
1.679856047E1,-1.483550072E-1,-9.863214493E0,-2.392822690E-2
1.680824417E1,-1.579262912E-1,-9.887143135E0,-1.914258115E-2
1.681792849E1,-1.579262912E-1,-9.877572060E0,-2.392822690E-2
1.682761203E1,-1.435693651E-1,-9.877572060E0,-1.914258115E-2
1.683729604E1,-1.483550072E-1,-9.882357597E0,-3.349951655E-2
1.684698037E1,-1.531406492E-1,-9.877572060E0,-4.307080805E-2
1.685666537E1,-1.531406492E-1,-9.877572060E0,-3.828516230E-2
1.686634990E1,-1.435693651E-1,-9.896714211E0,-2.871387079E-2
1.687603375E1,-1.531406492E-1,-9.872786522E0,-4.307080805E-2
1.688571792E1,-1.722832322E-1,-9.872786522E0,-3.349951655E-2
1.689540104E1,-1.531406492E-1,-9.872786522E0,-3.828516230E-2
1.690508438E1,-1.579262912E-1,-9.877572060E0,-4.307080805E-2
1.691476755E1,-1.627119333E-1,-9.863214493E0,-2.392822690E-2
1.692445068E1,-1.674975902E-1,-9.858428955E0,-2.871387079E-2
1.693413584E1,-1.531406492E-1,-9.868000984E0,-3.828516230E-2
1.694382089E1,-1.483550072E-1,-9.853643417E0,-2.871387079E-2
1.695350490E1,-1.579262912E-1,-9.863214493E0,-2.392822690E-2
1.696318943E1,-1.483550072E-1,-9.882357597E0,-2.871387079E-2
1.697287365E1,-1.483550072E-1,-9.868000984E0,-2.871387079E-2
1.698255834E1,-1.387837082E-1,-9.872786522E0,-3.349951655E-2
1.699224276E1,-1.387837082E-1,-9.887143135E0,-3.828516230E-2
1.700192802E1,-1.627119333E-1,-9.877572060E0,-2.392822690E-2
1.701161469E1,-1.531406492E-1,-9.887143135E0,-3.349951655E-2
1.702129844E1,-1.627119333E-1,-9.891928673E0,-3.349951655E-2
1.703098328E1,-1.531406492E-1,-9.872786522E0,-3.349951655E-2
1.704066646E1,-1.435693651E-1,-9.877572060E0,-2.871387079E-2
1.705035063E1,-1.435693651E-1,-9.887143135E0,-1.914258115E-2
1.706003578E1,-1.435693651E-1,-9.863214493E0,-3.828516230E-2
1.706972073E1,-1.483550072E-1,-9.877572060E0,-2.871387079E-2
1.707940511E1,-1.531406492E-1,-9.877572060E0,-2.871387079E-2
1.708908938E1,-1.531406492E-1,-9.877572060E0,-1.914258115E-2
1.709877292E1,-1.627119333E-1,-9.887143135E0,-2.392822690E-2
1.710845714E1,-1.483550072E-1,-9.882357597E0,-3.349951655E-2
1.711814104E1,-1.579262912E-1,-9.872786522E0,-3.828516230E-2
1.712782427E1,-1.579262912E-1,-9.887143135E0,-2.871387079E-2
1.713750755E1,-1.579262912E-1,-9.872786522E0,-4.307080805E-2
1.714719188E1,-1.483550072E-1,-9.882357597E0,-4.307080805E-2
1.715687646E1,-1.674975902E-1,-9.882357597E0,-3.349951655E-2
1.716656011E1,-1.531406492E-1,-9.872786522E0,-1.914258115E-2
1.717624198E1,-1.531406492E-1,-9.882357597E0,-1.914258115E-2
1.718592558E1,-1.435693651E-1,-9.882357597E0,-2.871387079E-2
1.719561026E1,-1.483550072E-1,-9.882357597E0,-2.392822690E-2
1.720529443E1,-1.339980662E-1,-9.872786522E0,-2.871387079E-2
1.721497823E1,-1.387837082E-1,-9.896714211E0,-1.435693540E-2
1.722466266E1,-1.531406492E-1,-9.868000984E0,-1.914258115E-2
1.723434646E1,-1.531406492E-1,-9.882357597E0,-2.871387079E-2
1.724403058E1,-1.483550072E-1,-9.872786522E0,-3.349951655E-2
1.725371406E1,-1.483550072E-1,-9.858428955E0,-3.349951655E-2
1.726339844E1,-1.387837082E-1,-9.872786522E0,-3.828516230E-2
1.727308302E1,-1.483550072E-1,-9.882357597E0,-3.828516230E-2
1.728276839E1,-1.387837082E-1,-9.882357597E0,-1.914258115E-2
1.729245245E1,-1.483550072E-1,-9.896714211E0,-2.871387079E-2
1.730213828E1,-1.579262912E-1,-9.877572060E0,-2.871387079E-2
1.731182235E1,-1.579262912E-1,-9.882357597E0,-1.914258115E-2
1.732150719E1,-1.531406492E-1,-9.863214493E0,-3.349951655E-2
1.733119130E1,-1.435693651E-1,-9.877572060E0,-2.392822690E-2
1.734087526E1,-1.483550072E-1,-9.887143135E0,-3.349951655E-2
1.735055896E1,-1.483550072E-1,-9.872786522E0,-2.392822690E-2
1.736024250E1,-1.579262912E-1,-9.877572060E0,-2.871387079E-2
1.736992750E1,-1.627119333E-1,-9.877572060E0,-3.349951655E-2
1.737961099E1,-1.579262912E-1,-9.882357597E0,-1.914258115E-2
1.738929547E1,-1.483550072E-1,-9.887143135E0,-1.914258115E-2
1.739897901E1,-1.579262912E-1,-9.882357597E0,-2.871387079E-2
1.740866490E1,-1.339980662E-1,-9.868000984E0,-3.349951655E-2
1.741834860E1,-1.722832322E-1,-9.872786522E0,-3.349951655E-2
1.742803302E1,-1.531406492E-1,-9.882357597E0,-3.349951655E-2
1.743771688E1,-1.531406492E-1,-9.887143135E0,-2.392822690E-2
1.744740068E1,-1.531406492E-1,-9.877572060E0,-3.828516230E-2
1.745708537E1,-1.483550072E-1,-9.868000984E0,-3.349951655E-2
1.746677058E1,-1.579262912E-1,-9.882357597E0,-1.914258115E-2
1.747645490E1,-1.483550072E-1,-9.882357597E0,-2.392822690E-2
1.748614073E1,-1.387837082E-1,-9.882357597E0,-1.435693540E-2
1.749582521E1,-1.435693651E-1,-9.863214493E0,-3.828516230E-2
1.750550953E1,-1.531406492E-1,-9.868000984E0,-2.871387079E-2
1.751519344E1,-1.531406492E-1,-9.887143135E0,-2.392822690E-2
1.752487802E1,-1.483550072E-1,-9.877572060E0,-2.392822690E-2
1.753456297E1,-1.579262912E-1,-9.891928673E0,-3.828516230E-2
1.754424813E1,-1.531406492E-1,-9.882357597E0,-2.392822690E-2
1.755393250E1,-1.579262912E-1,-9.882357597E0,-2.871387079E-2
1.756361698E1,-1.387837082E-1,-9.877572060E0,-3.349951655E-2
1.757330177E1,-1.435693651E-1,-9.877572060E0,-1.435693540E-2
1.758298735E1,-1.531406492E-1,-9.882357597E0,-2.392822690E-2
1.759267063E1,-1.483550072E-1,-9.868000984E0,-2.871387079E-2
1.760235708E1,-1.483550072E-1,-9.868000984E0,-3.349951655E-2
1.761204115E1,-1.579262912E-1,-9.872786522E0,-3.349951655E-2
1.762172558E1,-1.387837082E-1,-9.863214493E0,-3.349951655E-2
1.763141099E1,-1.579262912E-1,-9.887143135E0,-4.307080805E-2
1.764109599E1,-1.627119333E-1,-9.887143135E0,-3.349951655E-2
1.765078063E1,-1.483550072E-1,-9.882357597E0,-2.871387079E-2
1.766046485E1,-1.579262912E-1,-9.891928673E0,-2.392822690E-2
1.767014943E1,-1.387837082E-1,-9.887143135E0,-2.871387079E-2
1.767983531E1,-1.435693651E-1,-9.877572060E0,-3.828516230E-2
1.768952011E1,-1.579262912E-1,-9.877572060E0,-3.349951655E-2
1.769920656E1,-1.483550072E-1,-9.868000984E0,-3.349951655E-2
1.770889146E1,-1.531406492E-1,-9.863214493E0,-1.914258115E-2
1.771857568E1,-1.579262912E-1,-9.872786522E0,-3.349951655E-2
1.772826167E1,-1.483550072E-1,-9.877572060E0,-2.392822690E-2
1.773794688E1,-1.483550072E-1,-9.872786522E0,-2.392822690E-2
1.774763193E1,-1.579262912E-1,-9.882357597E0,-2.871387079E-2
1.775731719E1,-1.579262912E-1,-9.872786522E0,-2.871387079E-2
1.776700235E1,-1.579262912E-1,-9.863214493E0,-2.392822690E-2
1.777668839E1,-1.531406492E-1,-9.877572060E0,-2.871387079E-2
1.778637177E1,-1.674975902E-1,-9.872786522E0,-3.828516230E-2
1.779605584E1,-1.531406492E-1,-9.882357597E0,-2.392822690E-2
1.780573891E1,-1.435693651E-1,-9.882357597E0,-3.349951655E-2
1.781542302E1,-1.579262912E-1,-9.877572060E0,-3.349951655E-2
1.782510808E1,-1.531406492E-1,-9.868000984E0,-1.914258115E-2
1.783479172E1,-1.579262912E-1,-9.877572060E0,-2.871387079E-2
1.784447672E1,-1.674975902E-1,-9.877572060E0,-2.392822690E-2
1.785416250E1,-1.483550072E-1,-9.872786522E0,-2.871387079E-2
1.786384724E1,-1.531406492E-1,-9.882357597E0,-2.392822690E-2
1.787353182E1,-1.483550072E-1,-9.872786522E0,-3.349951655E-2
1.788321547E1,-1.579262912E-1,-9.872786522E0,-2.392822690E-2
1.789290141E1,-1.674975902E-1,-9.882357597E0,-2.871387079E-2
1.790258511E1,-1.579262912E-1,-9.891928673E0,-3.349951655E-2
1.791226943E1,-1.579262912E-1,-9.877572060E0,-3.349951655E-2
1.792195427E1,-1.722832322E-1,-9.858428955E0,-4.785645381E-2
1.793163875E1,-1.579262912E-1,-9.868000984E0,-3.828516230E-2
1.794132292E1,-1.435693651E-1,-9.872786522E0,-3.828516230E-2
1.795100651E1,-1.531406492E-1,-9.872786522E0,-2.871387079E-2
1.796069208E1,-1.531406492E-1,-9.887143135E0,-4.307080805E-2
1.797037698E1,-1.435693651E-1,-9.887143135E0,-2.871387079E-2
1.798006120E1,-1.435693651E-1,-9.882357597E0,-3.828516230E-2
1.798974568E1,-1.579262912E-1,-9.872786522E0,-3.349951655E-2
1.799942938E1,-1.435693651E-1,-9.877572060E0,-3.349951655E-2
1.800911344E1,-1.483550072E-1,-9.882357597E0,-3.828516230E-2
1.801879818E1,-1.627119333E-1,-9.891928673E0,-5.264209956E-2
1.802848188E1,-1.627119333E-1,-9.882357597E0,-4.785645381E-2
1.803816599E1,-1.483550072E-1,-9.877572060E0,-3.349951655E-2
1.804785052E1,-1.483550072E-1,-9.868000984E0,-3.828516230E-2
1.805753511E1,-1.483550072E-1,-9.891928673E0,-2.871387079E-2
1.806722021E1,-1.387837082E-1,-9.877572060E0,-2.392822690E-2
1.807690558E1,-1.435693651E-1,-9.868000984E0,-1.435693540E-2
1.808659031E1,-1.579262912E-1,-9.887143135E0,-2.392822690E-2
1.809627432E1,-1.531406492E-1,-9.868000984E0,-4.307080805E-2
1.810595891E1,-1.531406492E-1,-9.877572060E0,-3.828516230E-2
1.811564240E1,-1.531406492E-1,-9.877572060E0,-2.871387079E-2
1.812532630E1,-1.435693651E-1,-9.882357597E0,-2.871387079E-2
1.813501021E1,-1.387837082E-1,-9.863214493E0,-3.349951655E-2
1.814469261E1,-1.483550072E-1,-9.882357597E0,-2.392822690E-2
1.815437573E1,-1.531406492E-1,-9.868000984E0,-2.871387079E-2
1.816405922E1,-1.531406492E-1,-9.882357597E0,-4.307080805E-2
1.817374229E1,-1.435693651E-1,-9.877572060E0,-3.828516230E-2
1.818342599E1,-1.531406492E-1,-9.887143135E0,-3.828516230E-2
1.819310927E1,-1.531406492E-1,-9.877572060E0,-3.349951655E-2
1.820279375E1,-1.627119333E-1,-9.877572060E0,-2.392822690E-2
1.821247828E1,-1.579262912E-1,-9.882357597E0,-3.349951655E-2
1.822216380E1,-1.531406492E-1,-9.872786522E0,-2.392822690E-2
1.823184818E1,-1.435693651E-1,-9.872786522E0,-2.392822690E-2
1.824153193E1,-1.531406492E-1,-9.877572060E0,-2.392822690E-2
1.825121724E1,-1.579262912E-1,-9.882357597E0,-3.828516230E-2
1.826090188E1,-1.483550072E-1,-9.877572060E0,-2.871387079E-2
1.827058724E1,-1.339980662E-1,-9.877572060E0,-2.392822690E-2
1.828027162E1,-1.483550072E-1,-9.872786522E0,-3.349951655E-2
1.828995547E1,-1.435693651E-1,-9.872786522E0,-2.871387079E-2
1.829963953E1,-1.483550072E-1,-9.877572060E0,-1.435693540E-2
1.830932433E1,-1.674975902E-1,-9.882357597E0,-2.392822690E-2
1.831900964E1,-1.531406492E-1,-9.863214493E0,-1.435693540E-2
1.832869360E1,-1.435693651E-1,-9.877572060E0,-4.307080805E-2
1.833837787E1,-1.435693651E-1,-9.882357597E0,-4.307080805E-2
1.834806255E1,-1.387837082E-1,-9.877572060E0,-2.392822690E-2
1.835774646E1,-1.435693651E-1,-9.877572060E0,-3.349951655E-2
1.836743167E1,-1.483550072E-1,-9.891928673E0,-3.349951655E-2
1.837711589E1,-1.483550072E-1,-9.882357597E0,-3.828516230E-2
1.838680052E1,-1.531406492E-1,-9.868000984E0,-2.871387079E-2
1.839648521E1,-1.531406492E-1,-9.882357597E0,-3.828516230E-2
1.840616917E1,-1.483550072E-1,-9.887143135E0,-3.828516230E-2
1.841585417E1,-1.531406492E-1,-9.882357597E0,-4.307080805E-2
1.842553948E1,-1.579262912E-1,-9.891928673E0,-4.307080805E-2
1.843522568E1,-1.531406492E-1,-9.877572060E0,-4.307080805E-2
1.844491120E1,-1.531406492E-1,-9.882357597E0,-3.349951655E-2
1.845459490E1,-1.483550072E-1,-9.868000984E0,-3.828516230E-2
1.846428104E1,-1.579262912E-1,-9.868000984E0,-2.871387079E-2
1.847396490E1,-1.435693651E-1,-9.882357597E0,-2.392822690E-2
1.848365089E1,-1.387837082E-1,-9.882357597E0,-2.871387079E-2
1.849333646E1,-1.627119333E-1,-9.868000984E0,-3.828516230E-2
1.850302276E1,-1.483550072E-1,-9.882357597E0,-3.828516230E-2
1.851270787E1,-1.531406492E-1,-9.868000984E0,-2.392822690E-2
1.852239203E1,-1.627119333E-1,-9.868000984E0,-2.871387079E-2
1.853207542E1,-1.579262912E-1,-9.887143135E0,-2.871387079E-2
1.854175922E1,-1.722832322E-1,-9.877572060E0,-3.828516230E-2
1.855144349E1,-1.483550072E-1,-9.882357597E0,-4.307080805E-2
1.856112844E1,-1.674975902E-1,-9.877572060E0,-2.392822690E-2
1.857081318E1,-1.531406492E-1,-9.891928673E0,-3.828516230E-2
1.858049870E1,-1.531406492E-1,-9.868000984E0,-1.914258115E-2
1.859018479E1,-1.674975902E-1,-9.872786522E0,-3.349951655E-2
1.859987016E1,-1.627119333E-1,-9.877572060E0,-2.871387079E-2
1.860955417E1,-1.435693651E-1,-9.891928673E0,-3.828516230E-2
1.861924000E1,-1.483550072E-1,-9.877572060E0,-2.871387079E-2
1.862892568E1,-1.483550072E-1,-9.891928673E0,-3.828516230E-2
1.863861000E1,-1.483550072E-1,-9.853643417E0,-4.307080805E-2
1.864829516E1,-1.483550072E-1,-9.868000984E0,-2.392822690E-2
1.865797990E1,-1.531406492E-1,-9.872786522E0,-3.349951655E-2
1.866766547E1,-1.483550072E-1,-9.872786522E0,-1.914258115E-2
1.867735136E1,-1.483550072E-1,-9.872786522E0,-2.392822690E-2
1.868703511E1,-1.579262912E-1,-9.872786522E0,-1.914258115E-2
1.869672011E1,-1.387837082E-1,-9.882357597E0,-2.392822690E-2
1.870640620E1,-1.531406492E-1,-9.891928673E0,-2.871387079E-2
1.871609136E1,-1.483550072E-1,-9.887143135E0,-3.828516230E-2
1.872577511E1,-1.579262912E-1,-9.868000984E0,-1.914258115E-2
1.873545865E1,-1.579262912E-1,-9.872786522E0,-3.828516230E-2
1.874514193E1,-1.531406492E-1,-9.877572060E0,-3.349951655E-2
1.875482620E1,-1.531406492E-1,-9.882357597E0,-1.914258115E-2
1.876451005E1,-1.579262912E-1,-9.877572060E0,-3.828516230E-2
1.877419490E1,-1.387837082E-1,-9.887143135E0,-3.349951655E-2
1.878388047E1,-1.531406492E-1,-9.887143135E0,-1.914258115E-2
1.879356662E1,-1.531406492E-1,-9.877572060E0,-1.914258115E-2
1.880325120E1,-1.435693651E-1,-9.877572060E0,-3.349951655E-2
1.881293750E1,-1.531406492E-1,-9.863214493E0,-4.307080805E-2
1.882262089E1,-1.579262912E-1,-9.882357597E0,-2.392822690E-2
1.883230630E1,-1.483550072E-1,-9.887143135E0,-1.914258115E-2
1.884199047E1,-1.531406492E-1,-9.872786522E0,-3.349951655E-2
1.885167584E1,-1.483550072E-1,-9.868000984E0,-2.392822690E-2
1.886136104E1,-1.531406492E-1,-9.877572060E0,-2.392822690E-2
1.887104552E1,-1.674975902E-1,-9.877572060E0,-3.349951655E-2
1.888073120E1,-1.483550072E-1,-9.887143135E0,-2.392822690E-2
1.889041537E1,-1.531406492E-1,-9.877572060E0,-4.307080805E-2
1.890009933E1,-1.579262912E-1,-9.877572060E0,-2.392822690E-2
1.890978208E1,-1.531406492E-1,-9.877572060E0,-3.349951655E-2
1.891946818E1,-1.531406492E-1,-9.868000984E0,-3.349951655E-2
1.892915568E1,-1.531406492E-1,-9.872786522E0,-4.307080805E-2
1.893884240E1,-1.483550072E-1,-9.877572060E0,-2.871387079E-2
1.894852865E1,-1.627119333E-1,-9.877572060E0,-3.349951655E-2
1.895821354E1,-1.531406492E-1,-9.872786522E0,-2.871387079E-2
1.896789662E1,-1.483550072E-1,-9.877572060E0,-2.392822690E-2
1.897757985E1,-1.531406492E-1,-9.872786522E0,-2.392822690E-2
1.898726526E1,-1.531406492E-1,-9.877572060E0,-3.828516230E-2
1.899694901E1,-1.722832322E-1,-9.891928673E0,-2.871387079E-2
1.900663245E1,-1.579262912E-1,-9.891928673E0,-2.392822690E-2
1.901631594E1,-1.531406492E-1,-9.872786522E0,-3.349951655E-2
1.902599969E1,-1.531406492E-1,-9.868000984E0,-4.307080805E-2
1.903568297E1,-1.435693651E-1,-9.872786522E0,-4.785645381E-2
1.904536672E1,-1.627119333E-1,-9.887143135E0,-3.828516230E-2
1.905505125E1,-1.531406492E-1,-9.877572060E0,-2.392822690E-2
1.906473521E1,-1.483550072E-1,-9.872786522E0,-1.914258115E-2
1.907442037E1,-1.292124242E-1,-9.891928673E0,-2.871387079E-2
1.908410651E1,-1.483550072E-1,-9.882357597E0,-3.349951655E-2
1.909378912E1,-1.579262912E-1,-9.872786522E0,-2.392822690E-2
1.910347266E1,-1.387837082E-1,-9.882357597E0,-2.392822690E-2
1.911315771E1,-1.435693651E-1,-9.858428955E0,-1.914258115E-2
1.912284198E1,-1.627119333E-1,-9.868000984E0,-2.871387079E-2
1.913252505E1,-1.579262912E-1,-9.877572060E0,-1.914258115E-2
1.914220886E1,-1.435693651E-1,-9.868000984E0,-2.392822690E-2
1.915189281E1,-1.531406492E-1,-9.882357597E0,-2.392822690E-2
1.916157745E1,-1.387837082E-1,-9.868000984E0,-1.914258115E-2
1.917126250E1,-1.531406492E-1,-9.887143135E0,-3.349951655E-2
1.918094761E1,-1.531406492E-1,-9.882357597E0,-3.349951655E-2
1.919063125E1,-1.483550072E-1,-9.868000984E0,-3.349951655E-2
1.920031594E1,-1.674975902E-1,-9.887143135E0,-2.871387079E-2
1.920999948E1,-1.579262912E-1,-9.863214493E0,-2.392822690E-2
