"Time (s)","Acceleration x (m/s^2)","Acceleration y (m/s^2)","Acceleration z (m/s^2)"
5.577532600E-2,1.689332843E0,8.183453679E-1,9.686145782E0
6.563501400E-2,1.555334687E0,8.805587292E-1,9.681360245E0
7.549475300E-2,1.421336651E0,9.667003751E-1,9.681360245E0
8.535444100E-2,1.416550994E0,1.048056364E0,9.748359680E0
9.521418100E-2,1.526620865E0,9.954141974E-1,9.710074425E0
1.050738680E-1,1.550549030E0,9.379864931E-1,9.566504478E0
1.149336080E-1,1.512263894E0,9.762716293E-1,9.422935486E0
1.247933470E-1,1.383051515E0,1.119840980E0,9.427721024E0
1.346530350E-1,1.263410330E0,1.296909928E0,9.623932838E0
1.445127740E-1,1.110269666E0,1.320838094E0,9.662218094E0
1.543724620E-1,1.071984529E0,1.229910851E0,9.844072342E0
1.642322010E-1,1.071984529E0,1.105484009E0,9.796216011E0
1.740918890E-1,1.205982566E0,1.158126116E0,9.681360245E0
1.839516280E-1,1.282552958E0,1.272981644E0,9.576076508E0
1.938112640E-1,1.311266780E0,1.182054400E0,9.600004196E0
2.036710560E-1,1.282552958E0,1.105484009E0,9.652647018E0
2.135307430E-1,1.325623751E0,1.033699393E0,9.762716293E0
2.233904830E-1,1.354337573E0,1.004985452E0,9.973284721E0
2.332502220E-1,1.349551916E0,9.092726111E-1,9.987641335E0
2.431099100E-1,1.406979680E0,1.019342422E0,9.920642853E0
2.529696490E-1,1.450050473E0,1.091127157E0,9.743574142E0
2.628293370E-1,1.545763373E0,1.167697430E0,9.748359680E0
2.726890760E-1,1.617548108E0,1.201196909E0,9.882357597E0
2.825487640E-1,1.210768223E0,1.325623751E0,9.556933403E0
2.924085030E-1,7.226324677E-1,1.579262972E0,9.245866776E0
3.022681910E-1,8.614161611E-1,1.574477315E0,1.068156052E1
3.121279310E-1,8.374879360E-1,1.540977836E0,1.138504982E1
3.219876180E-1,7.561319470E-1,1.138983607E0,1.140897846E1
3.318473580E-1,7.752745152E-1,8.901300430E-1,1.098305607E1
3.417070450E-1,7.322037220E-1,8.614161611E-1,1.045184898E1
3.515357430E-1,6.747759581E-1,1.167697430E0,1.037049294E1
3.612021490E-1,5.934200287E-1,1.430907965E0,1.056670475E1
3.708686080E-1,5.742774606E-1,1.426122308E0,1.070070267E1
3.805350140E-1,5.838487148E-1,1.201196909E0,1.079641533E1
3.902014720E-1,6.460621357E-1,8.566305041E-1,1.097827053E1
3.998678780E-1,6.747759581E-1,6.364908218E-1,1.117926693E1
4.095343370E-1,6.747759581E-1,7.848458290E-1,1.112662506E1
4.192007430E-1,4.977070987E-1,1.043270707E0,1.106919765E1
4.288671490E-1,3.828516304E-1,1.081555843E0,1.104526901E1
4.385336080E-1,3.397808075E-1,9.810572863E-1,1.097348499E1
4.482000140E-1,8.614161611E-2,1.033699393E0,1.101177025E1
4.578664720E-1,1.052841991E-1,1.091127157E0,1.114576817E1
4.675328780E-1,1.292124242E-1,1.191625714E0,1.141854954E1
4.771993370E-1,3.349951804E-1,1.205982566E0,1.163868904E1
4.868657430E-1,3.876372576E-1,1.282552958E0,1.148554897E1
4.965322010E-1,1.019342422E0,1.770688772E0,1.068156052E1
5.061986080E-1,3.771088600E0,3.058027267E0,9.676574707E0
5.158650660E-1,1.746760488E0,2.053041935E0,1.125583744E1
5.255314720E-1,1.296909928E0,1.435693622E0,1.171525955E1
5.351979310E-1,1.268195987E0,1.138983607E0,1.173440266E1
5.448643370E-1,1.775474429E0,5.790630579E-1,1.094477081E1
5.545307950E-1,1.981257200E0,2.823530734E-1,1.050927734E1
5.641972010E-1,1.866401672E0,7.800601721E-1,1.090170002E1
5.738636600E-1,1.426122308E0,1.105484009E0,9.978070259E0
5.835300660E-1,1.220339537E0,1.052842021E0,9.638289452E0
5.931965240E-1,6.987041831E-1,1.028913736E0,1.021256733E1
6.028629310E-1,2.919243574E-1,1.086341500E0,1.047099209E1
6.125293890E-1,2.727817893E-1,1.167697430E0,1.012164021E1
6.221957950E-1,5.312066078E-1,1.311266780E0,9.585647583E0
6.318622530E-1,8.327022791E-1,1.526620865E0,9.298508644E0
6.415286600E-1,1.493121386E0,1.856830359E0,9.394221306E0
6.511951180E-1,1.842473388E0,2.263610125E0,1.003549862E1
6.608615240E-1,1.942971945E0,2.311466694E0,1.126062298E1
6.705279310E-1,3.206382275E0,1.067198873E0,1.162433243E1
6.801943890E-1,4.421936035E0,1.000199914E0,1.159083271E1
6.898608470E-1,5.072783947E0,9.571290612E-1,1.153340530E1
6.995272530E-1,5.335994720E0,1.354337573E0,1.139462185E1
7.091937120E-1,5.048855782E0,1.737189293E0,9.834501266E0
7.188601180E-1,4.651647091E0,2.163111687E0,1.023170948E1
7.285265760E-1,5.316852093E0,2.689532757E0,9.600004196E0
7.381929830E-1,5.584847927E0,3.053241730E0,9.934999466E0
7.478594410E-1,5.613562107E0,2.933600664E0,9.279366493E0
7.575258470E-1,5.618347645E0,2.818745136E0,7.087540627E0
7.671923060E-1,5.972485542E0,2.775674343E0,5.737988472E0
7.768587120E-1,5.388636589E0,2.416750908E0,5.331208706E0
7.865251700E-1,4.843072891E0,2.019542217E0,7.207181931E0
7.961915760E-1,4.728217602E0,1.847259045E0,7.393822193E0
8.058580350E-1,4.541577339E0,1.655833244E0,6.326622963E0
8.155244410E-1,4.297509670E0,1.531406522E0,4.622933388E0
8.251908990E-1,4.187439442E0,1.320838094E0,3.900300980E0
8.348573060E-1,4.216153622E0,1.048056364E0,3.775874138E0
8.445237640E-1,4.488935471E0,8.997012973E-1,4.833501816E0
8.541901700E-1,4.584648132E0,3.349951804E-1,4.383651257E0
8.638566280E-1,4.273581028E0,7.178468257E-2,4.321437836E0
8.735230350E-1,4.316651821E0,-6.699903309E-2,4.058227062E0
8.831894930E-1,4.800002098E0,-2.632105052E-1,3.924229145E0
8.928558990E-1,5.249852657E0,-3.445664644E-1,3.302095175E0
9.025223580E-1,5.647061348E0,-3.302095234E-1,2.009970903E0
9.121887640E-1,6.211767673E0,-3.828516304E-1,2.804388046E0
9.218551700E-1,6.666403770E0,-4.642075896E-1,3.177668571E0
9.315216280E-1,6.943971157E0,-4.833501875E-1,3.541377544E0
9.411880350E-1,7.360322475E0,-5.647061467E-1,3.694518089E0
9.508544930E-1,7.412964344E0,-6.795616150E-1,3.479164124E0
9.605208990E-1,6.766902447E0,-1.014556766E0,2.928814888E0
9.701873580E-1,6.786045074E0,-1.502692580E0,1.004985452E0
9.798537640E-1,7.082755089E0,-1.698904037E0,2.828316450E0
9.895202220E-1,8.240880966E0,-1.564906001E0,4.876572609E0
9.991866280E-1,9.250652313E0,-1.651047587E0,5.431707382E0
1.008853087E0,9.399007797E0,-2.498106956E0,4.575077057E0
1.018519493E0,9.159725189E0,-4.077369690E0,4.024727821E0
1.028185951E0,8.829515457E0,-4.575077057E0,3.967299938E0
1.037852358E0,8.819944382E0,-4.110869408E0,4.469792843E0
1.047518816E0,8.752944946E0,-3.153740168E0,4.876572609E0
1.057185222E0,8.307880402E0,-1.909472466E0,5.091926575E0
1.066851681E0,7.948956966E0,-8.757730722E-1,5.125426292E0
1.076518087E0,7.800601959E0,-2.775674164E-1,4.914857864E0
1.086184545E0,7.369893551E0,-3.206382394E-1,4.096512318E0
1.095850951E0,8.001599312E0,1.435693540E-2,3.383451223E0
1.105517410E0,8.772088051E0,8.087740541E-1,3.062813044E0
1.115183816E0,8.618947029E0,1.617548108E0,2.732603550E0
1.124850222E0,8.595019341E0,1.852044702E0,3.302095175E0
1.134516681E0,8.700303078E0,5.982056856E-1,3.871587038E0
1.144183139E0,9.150154114E0,-6.221339107E-1,5.087141037E0
1.153849545E0,9.762716293E0,-1.067198873E0,6.829115868E0
1.163515951E0,1.000678444E1,-1.962114573E0,8.011170387E0
1.173182410E0,1.047099209E1,-2.766103029E0,8.599804878E0
1.182848816E0,1.047577763E1,-3.460021496E0,8.480163574E0
1.192515274E0,1.023649502E1,-3.364308596E0,8.872586250E0
1.202181681E0,9.585647583E0,-2.301895380E0,9.949356079E0
1.211848139E0,8.920442581E0,-1.588834286E0,1.075334454E1
1.221514545E0,8.231309891E0,-1.564906001E0,1.042792130E1
1.231181003E0,7.762316704E0,-1.942971945E0,1.049013424E1
1.240847410E0,6.982256413E0,-2.000399828E0,1.049970531E1
1.250513868E0,5.929414749E0,-1.689332843E0,1.008814049E1
1.260180274E0,4.756931305E0,-1.167697430E0,9.848857880E0
1.269846733E0,3.570091486E0,-1.095912814E0,9.174081802E0
1.279513139E0,3.244667530E0,-8.997012973E-1,8.523234367E0
1.289179597E0,2.718246460E0,-7.322037220E-1,7.436892986E0
1.298846003E0,2.411965132E0,-7.082754970E-1,5.905486107E0
1.308512462E0,3.038884640E0,-5.072783828E-1,3.766302824E0
1.318178868E0,3.354737282E0,-3.589234054E-1,2.450250387E0
1.327845326E0,4.173082829E0,4.785645287E-3,2.163111687E0
1.337511733E0,4.953142643E0,3.349951804E-1,1.732403636E0
1.347178191E0,4.967499733E0,7.178468257E-2,2.871387303E-1
1.356844597E0,5.800201893E0,-1.818545163E-1,3.876372576E-1
1.366511056E0,6.628118515E0,1.292124242E-1,1.148554921E0
1.376177462E0,6.604190350E0,5.742774159E-2,2.258824587E0
1.385843920E0,5.752345562E0,-9.571290761E-2,3.072384357E0
1.395510326E0,5.029713154E0,-2.392822653E-1,3.062813044E0
1.405176733E0,6.340980053E0,-8.422735929E-1,2.354537487E0
1.414843191E0,7.709674358E0,-1.679761529E0,-1.143769264E0
1.424509597E0,8.441878319E0,-1.832902193E0,-2.268395901E0
1.434176056E0,8.977870941E0,-1.828116536E0,-2.440679073E0
1.443842462E0,7.714460373E0,-1.086341500E0,-1.560120344E0
1.453508920E0,6.742974281E0,-5.216353536E-1,1.435693651E-1
1.463175326E0,5.704489231E0,-1.124626637E0,-4.307080805E-2
1.472841785E0,6.125626087E0,-2.330609322E0,-2.043470621E0
1.482508191E0,6.264409542E0,-1.545763373E0,-3.967299938E0
1.492174649E0,8.408378601E0,-1.521835208E0,-3.675375462E0
1.501841056E0,8.197810173E0,-1.531406522E0,-5.178068161E0
1.511507514E0,8.164310455E0,-1.091127157E0,-5.067998409E0
1.521173920E0,8.427521706E0,-1.244267821E0,-5.781059742E0
1.530840326E0,8.149953842E0,-1.938186288E0,-6.556334019E0
1.540506785E0,8.212167740E0,-2.120040894E0,-5.211567879E0
1.550173191E0,8.193024635E0,-1.363908887E0,-4.618147850E0
1.559839649E0,7.341179848E0,-4.977070987E-1,-5.374279499E0
1.569506056E0,6.915257454E0,-4.019941986E-1,-6.221338749E0
1.579172514E0,6.690331936E0,-6.317051649E-1,-7.030112743E0
1.588838920E0,6.374479294E0,-1.698904037E0,-8.054241180E0
1.598505378E0,6.632904530E0,-2.713460922E0,-9.231510162E0
1.608171785E0,6.671189308E0,-2.225325108E0,-9.748359680E0
1.617838243E0,6.532405853E0,-1.421336651E0,-1.023649502E1
1.627504649E0,6.010770321E0,-5.742774606E-1,-9.600004196E0
1.637171108E0,5.221138954E0,1.770688742E-1,-9.293723106E0
1.646837514E0,4.441078663E0,7.513462901E-1,-9.322437286E0
1.656503920E0,3.924229145E0,1.215553880E0,-9.714859962E0
1.666170378E0,3.637090445E0,1.387837172E0,-9.714859962E0
1.675836785E0,3.144168854E0,1.110269666E0,-1.042313576E1
1.685503243E0,2.976671457E0,7.657032609E-1,-1.090170002E1
1.695169649E0,2.694318295E0,8.614161611E-1,-1.037049294E1
1.704836108E0,2.598605394E0,9.236295223E-1,-1.124148083E1
1.714502514E0,2.746960402E0,1.454836130E0,-1.270110226E1
1.724168972E0,2.670390129E0,2.268395901E0,-1.209332561E1
1.733835378E0,2.163111687E0,2.368894339E0,-1.216989613E1
1.743501837E0,1.617548108E0,2.402393818E0,-1.232782269E1
1.753168243E0,1.383051515E0,1.737189293E0,-1.327059460E1
1.762834701E0,1.799402595E0,1.191625714E0,-1.277767277E1
1.772501108E0,1.962114573E0,1.296909928E0,-1.097827053E1
1.782167514E0,1.981257200E0,1.210768223E0,-1.025563812E1
1.791833972E0,1.670190215E0,9.762716293E-1,-1.074377346E1
1.801500431E0,1.670190215E0,5.599204898E-1,-1.081555843E1
1.811166837E0,1.196411371E0,5.072783828E-1,-1.051406288E1
1.820833295E0,9.475577474E-1,6.364908218E-1,-1.025085258E1
1.830499701E0,9.140582681E-1,4.307080805E-2,-1.056191921E1
1.840166160E0,7.561319470E-1,-4.737788737E-1,-1.039920712E1
1.849832566E0,9.475577474E-1,-8.183453679E-1,-1.110269737E1
1.859498972E0,1.052842021E0,1.483550072E-1,-1.048534870E1
1.869165431E0,9.044869542E-1,9.619147182E-1,-1.036092186E1
1.878831837E0,6.221339107E-1,1.057627559E0,-1.153819084E1
1.888498295E0,-6.556333899E-1,2.751745939E0,-1.143290615E1
1.898164753E0,5.934200287E-1,1.593619823E0,-1.084905815E1
1.907831160E0,-3.732803464E-1,1.052841991E-1,-1.123669529E1
1.917497618E0,-1.148554832E-1,4.594219327E-1,-1.056191921E1
1.927164024E0,7.848458290E-1,3.924229145E-1,-1.062891865E1
1.936830483E0,6.747759581E-1,-5.742774159E-2,-1.061934662E1
1.946496889E0,8.662018180E-1,-5.694918036E-1,-1.032263660E1
1.956163347E0,5.120640397E-1,-2.392822653E-1,-9.757930756E0
1.965829753E0,1.004985496E-1,2.536391914E-1,-9.303294182E0
1.975496212E0,-4.307080805E-2,2.344966233E-1,-9.686145782E0
1.985162618E0,-3.876372576E-1,1.770688742E-1,-9.934999466E0
1.994829076E0,-2.967100143E-1,1.627119333E-1,-1.011206818E1
2.004495483E0,8.614161611E-2,5.742774159E-2,-1.029870892E1
2.014161941E0,-2.871387079E-2,1.531406492E-1,-1.077248764E1
2.023828399E0,6.987041831E-1,-1.052841991E-1,-9.293723106E0
2.033494806E0,5.312066078E-1,-1.521835208E0,-9.513862610E0
2.043161264E0,-9.092725813E-2,-1.579262972E0,-1.013599682E1
2.052827670E0,2.297109663E-1,-6.221339107E-1,-9.614361763E0
2.062494128E0,-1.914258115E-2,1.483550072E-1,-1.004506969E1
2.072160535E0,9.571290575E-3,3.972085714E-1,-1.038485050E1
2.081826993E0,-2.584248483E-1,4.833501875E-1,-1.065284634E1
2.091493399E0,-3.062812984E-1,3.637090325E-1,-1.103091240E1
2.101159858E0,-1.579262912E-1,9.523434043E-1,-1.005942631E1
2.110826316E0,-1.962114573E-1,-2.775674164E-1,-1.113141060E1
2.120492722E0,-6.843472719E-1,-4.737788737E-1,-1.147119141E1
2.130159181E0,-4.163511395E-1,3.254238665E-1,-1.112662506E1
2.139825587E0,-1.292124242E-1,6.747759581E-1,-1.103091240E1
2.149492045E0,-1.818545163E-1,5.647061467E-1,-1.015513897E1
2.159158503E0,-3.062812984E-1,-5.599204898E-1,-9.949356079E0
2.168824910E0,-1.674975902E-1,-1.158126116E0,-1.034177971E1
2.178491368E0,-3.972085714E-1,-1.627119333E-1,-9.738788605E0
2.188157774E0,-3.493520916E-1,1.914258152E-1,-9.911071777E0
2.197824233E0,-4.354937077E-1,-8.614161611E-2,-1.013121128E1
2.207490691E0,-3.158525825E-1,-3.206382394E-1,-9.671789169E0
2.217157097E0,-1.100698411E-1,-6.125625968E-1,-9.619147301E0
2.226823556E0,1.531406492E-1,-7.848458290E-1,-9.844072342E0
2.236490014E0,5.647061467E-1,-1.052842021E0,-9.236295700E0
2.246156420E0,-1.435693540E-2,-1.186840057E0,-9.556933403E0
2.255822878E0,1.100698411E-1,-3.349951804E-1,-1.125105190E1
2.265489337E0,-5.264209956E-2,5.024927258E-1,-1.004028416E1
2.275155743E0,4.307080805E-2,-1.244267747E-1,-9.748359680E0
2.284822201E0,1.067198873E0,-5.828916073E0,-9.092725754E0
2.294488660E0,-2.632105052E-1,-3.043670416E0,-1.142333508E1
2.304155066E0,4.785645287E-3,1.866401672E0,-9.619147301E0
2.313821524E0,1.292124242E-1,-1.009771109E0,-1.044706345E1
2.323487983E0,-3.062812984E-1,3.732803464E-1,-9.193224907E0
2.333154389E0,2.105683982E-1,-3.637090325E-1,-9.848857880E0
2.342820847E0,-5.742774159E-2,-3.206382394E-1,-9.887143135E0
2.352487306E0,-9.571290575E-3,-3.158525825E-1,-9.513862610E0
2.362153712E0,-9.092725813E-2,-6.699903309E-2,-9.925428391E0
2.371820170E0,-8.614161611E-2,-4.115654826E-1,-9.370293617E0
2.381486628E0,-1.435693651E-1,-4.737788737E-1,-1.038006496E1
2.391153087E0,2.057827413E-1,-3.302095234E-1,-9.250652313E0
2.400819493E0,-1.627119333E-1,-3.493520916E-1,-9.590433121E0
2.410485951E0,-3.445664644E-1,-2.919243574E-1,-1.028913784E1
2.420152410E0,-1.387837082E-1,-2.727817893E-1,-9.939785004E0
2.429818868E0,4.785645381E-2,-7.800601721E-1,-9.652647018E0
2.439485274E0,7.178468257E-2,-9.332008362E-1,-1.132283688E1
2.449151733E0,6.747759581E-1,9.571290575E-3,-9.408578873E0
2.458818191E0,2.297109663E-1,-5.503492355E-1,-1.028913784E1
2.468484649E0,2.392822690E-2,-6.029912829E-1,-1.002592659E1
2.478151056E0,-4.546363056E-1,-3.062812984E-1,-9.255437851E0
2.487817514E0,-1.627119333E-1,-3.349951804E-1,-9.968499184E0
2.497483972E0,9.571290575E-3,-1.579262912E-1,-1.025563812E1
2.507150431E0,1.339980662E-1,1.914258115E-2,-1.026042366E1
2.516816889E0,3.684946895E-1,-1.674975902E-1,-1.032263660E1
2.526483295E0,4.785645287E-3,5.264209956E-2,-1.005942631E1
2.536149753E0,-4.546363056E-1,1.052841991E-1,-1.009292603E1
2.545816212E0,1.004985496E-1,3.302095234E-1,-9.571290970E0
2.555482670E0,-4.163511395E-1,-2.009970993E-1,-9.973284721E0
2.565149128E0,-7.178468257E-2,-1.674975902E-1,-9.930213928E0
2.574815587E0,2.201396823E-1,-1.292124242E-1,-1.009771156E1
2.584481993E0,1.148554832E-1,-3.732803464E-1,-9.815358162E0
2.594148451E0,1.627119333E-1,-4.354937077E-1,-1.025563812E1
2.603814910E0,2.297109663E-1,1.627119333E-1,-9.671789169E0
2.613481368E0,1.004985496E-1,1.914258115E-2,-1.004506969E1
2.623147826E0,2.488535494E-1,4.163511395E-1,-9.221938133E0
2.632814285E0,1.914258152E-1,-8.614161611E-2,-8.298309326E0
2.642480743E0,1.914258115E-2,-1.962114573E-1,-7.724031448E0
2.652147149E0,-7.657032460E-2,-8.614161611E-1,-8.580661774E0
2.661813608E0,-2.488535494E-1,3.780659735E-1,-1.327538013E1
2.671480066E0,2.201396823E-1,9.858429432E-1,-1.343330669E1
2.681146524E0,2.871387303E-1,5.024927258E-1,-9.954142570E0
2.690812983E0,-5.264209956E-2,-2.057827413E-1,-9.509077072E0
2.700479441E0,1.387837082E-1,3.684946895E-1,-9.992427826E0
2.710145899E0,1.627119333E-1,4.163511395E-1,-9.729216576E0
2.719812358E0,-1.368694544E0,-1.780260086E0,-9.308079720E0
2.729478816E0,1.004985496E-1,-3.349951655E-2,-1.055234814E1
2.739145222E0,-1.052841991E-1,-3.828516230E-2,-9.987641335E0
2.748811733E0,-1.100698411E-1,4.307080805E-2,-9.958928108E0
2.758478191E0,-5.264209956E-2,-4.785645381E-2,-9.848857880E0
2.768144597E0,-1.722832322E-1,-1.435693540E-2,-9.872786522E0
2.777811056E0,-4.307080805E-2,-4.785645287E-3,-9.949356079E0
2.787477514E0,-1.914258115E-2,1.435693540E-2,-9.958928108E0
2.797143972E0,-9.571290761E-2,1.435693540E-2,-9.901499748E0
2.806810431E0,-1.914258115E-2,5.264209956E-2,-9.987641335E0
2.816476889E0,-1.387837082E-1,-2.392822690E-2,-9.997213364E0
2.826143399E0,-7.178468257E-2,-9.571290575E-3,-1.006899738E1
2.835809858E0,-7.657032460E-2,6.699903309E-2,-9.982855797E0
2.845476264E0,-1.339980662E-1,-1.914258115E-2,-1.005464077E1
2.855142722E0,1.914258152E-1,-1.435693651E-1,-1.000678444E1
2.864809233E0,-2.871387303E-1,1.196411327E-1,-1.002114105E1
2.874475691E0,1.435693651E-1,-4.785645381E-2,-9.422935486E0
2.884142149E0,-9.571290575E-3,-1.100698411E-1,-1.002592659E1
2.893808608E0,-2.679961324E-1,-2.488535494E-1,-9.695717812E0
2.903475066E0,-2.344966233E-1,-3.876372576E-1,-9.518648148E0
2.913141524E0,-1.483550072E-1,-3.780659735E-1,-9.604789734E0
2.922807983E0,-1.722832322E-1,-1.148554832E-1,-1.042313576E1
2.932474441E0,-6.221338734E-2,8.614161611E-2,-1.009771156E1
2.942140899E0,-1.052841991E-1,6.699903309E-2,-9.863214493E0
2.951807358E0,-1.100698411E-1,3.014956415E-1,-1.010249710E1
2.961473816E0,-5.742774159E-2,4.929214716E-1,-1.014556789E1
2.971140274E0,9.571290575E-3,1.627119333E-1,-1.002592659E1
2.980806733E0,-1.100698411E-1,-4.307080805E-2,-9.930213928E0
2.990473191E0,-1.148554832E-1,-4.307080805E-2,-9.920642853E0
3.000139649E0,-1.148554832E-1,-2.871387079E-2,-9.949356079E0
3.009806108E0,-1.100698411E-1,-4.785645381E-2,-9.934999466E0
3.019472566E0,-1.100698411E-1,-1.914258115E-2,-9.939785004E0
3.029139076E0,-1.052841991E-1,-3.828516230E-2,-9.925428391E0
3.038805535E0,-9.571290761E-2,-3.828516230E-2,-9.930213928E0
3.048471993E0,-1.052841991E-1,-4.307080805E-2,-9.939785004E0
3.058138451E0,-9.571290761E-2,-3.828516230E-2,-9.939785004E0
3.067804910E0,-9.571290761E-2,-4.307080805E-2,-9.934999466E0
3.077471368E0,-1.148554832E-1,-4.307080805E-2,-9.934999466E0
3.087137826E0,-1.100698411E-1,-9.571290575E-3,-9.925428391E0
3.096804285E0,-1.196411327E-1,-1.435693540E-2,-9.925428391E0
3.106470795E0,-9.092725813E-2,-2.871387079E-2,-9.939785004E0
3.116137253E0,-1.196411327E-1,-3.828516230E-2,-9.930213928E0
3.125803712E0,-1.196411327E-1,-3.349951655E-2,-9.930213928E0
3.135470170E0,-1.004985496E-1,-3.349951655E-2,-9.911071777E0
3.145136628E0,-1.100698411E-1,-3.828516230E-2,-9.930213928E0
3.154803087E0,-1.196411327E-1,-3.349951655E-2,-9.930213928E0
3.164469545E0,-1.052841991E-1,-4.307080805E-2,-9.930213928E0
3.174136056E0,-1.100698411E-1,-3.828516230E-2,-9.925428391E0
3.183802514E0,-1.100698411E-1,-4.785645381E-2,-9.954142570E0
3.193468972E0,-1.052841991E-1,-3.349951655E-2,-9.939785004E0
3.203135431E0,-1.196411327E-1,-3.828516230E-2,-9.939785004E0
3.212801889E0,-9.571290761E-2,-3.349951655E-2,-9.939785004E0
3.222468399E0,-1.004985496E-1,-3.349951655E-2,-9.944570541E0
3.232134858E0,-1.100698411E-1,-2.871387079E-2,-9.949356079E0
3.241801316E0,-1.148554832E-1,-4.307080805E-2,-9.934999466E0
3.251467774E0,-1.148554832E-1,-4.307080805E-2,-9.925428391E0
3.261134181E0,-1.004985496E-1,-3.828516230E-2,-9.930213928E0
3.270800743E0,-1.052841991E-1,-3.349951655E-2,-9.934999466E0
3.280467201E0,-1.052841991E-1,-3.828516230E-2,-9.939785004E0
3.290133660E0,-1.100698411E-1,-2.392822690E-2,-9.925428391E0
3.299800118E0,-1.148554832E-1,-3.828516230E-2,-9.939785004E0
3.309466576E0,-1.148554832E-1,-3.828516230E-2,-9.925428391E0
3.319133087E0,-1.052841991E-1,-2.871387079E-2,-9.925428391E0
3.328799545E0,-1.052841991E-1,-3.349951655E-2,-9.944570541E0
3.338466003E0,-1.148554832E-1,-2.871387079E-2,-9.939785004E0
3.348132462E0,-1.196411327E-1,-3.349951655E-2,-9.939785004E0
3.357798920E0,-1.052841991E-1,-3.349951655E-2,-9.939785004E0
3.367465431E0,-1.052841991E-1,-3.349951655E-2,-9.925428391E0
3.377131889E0,-1.100698411E-1,-3.828516230E-2,-9.920642853E0
3.386798399E0,-1.100698411E-1,-3.349951655E-2,-9.944570541E0
3.396464858E0,-1.100698411E-1,-1.914258115E-2,-9.944570541E0
3.406131316E0,-1.196411327E-1,-2.871387079E-2,-9.934999466E0
3.415797774E0,-1.148554832E-1,-4.307080805E-2,-9.934999466E0
3.425464285E0,-1.052841991E-1,-2.871387079E-2,-9.934999466E0
3.435130691E0,-1.100698411E-1,-4.785645381E-2,-9.925428391E0
3.444797201E0,-1.196411327E-1,-3.349951655E-2,-9.944570541E0
3.454463712E0,-1.244267747E-1,-3.828516230E-2,-9.944570541E0
3.464130170E0,-1.196411327E-1,-1.914258115E-2,-9.934999466E0
3.473796628E0,-1.148554832E-1,-2.871387079E-2,-9.925428391E0
3.483463139E0,-9.571290761E-2,-2.871387079E-2,-9.939785004E0
3.493129597E0,-1.004985496E-1,-2.392822690E-2,-9.944570541E0
3.502796056E0,-1.100698411E-1,-2.871387079E-2,-9.934999466E0
3.512462566E0,-1.148554832E-1,-3.828516230E-2,-9.925428391E0
3.522129024E0,-1.100698411E-1,-3.828516230E-2,-9.930213928E0
3.531795483E0,-1.004985496E-1,-3.828516230E-2,-9.944570541E0
3.541461993E0,-1.148554832E-1,-3.828516230E-2,-9.934999466E0
3.551128451E0,-1.292124242E-1,-3.349951655E-2,-9.944570541E0
3.560794910E0,-1.196411327E-1,-2.871387079E-2,-9.930213928E0
3.570461420E0,-1.100698411E-1,-3.349951655E-2,-9.949356079E0
3.580127878E0,-1.004985496E-1,-2.392822690E-2,-9.934999466E0
3.589794337E0,-9.571290761E-2,-4.785645381E-2,-9.930213928E0
3.599460847E0,-1.052841991E-1,-4.785645381E-2,-9.930213928E0
3.609127306E0,-1.052841991E-1,-2.392822690E-2,-9.939785004E0
3.618793816E0,-1.004985496E-1,-3.828516230E-2,-9.944570541E0
3.628460274E0,-1.196411327E-1,-4.307080805E-2,-9.939785004E0
3.638126733E0,-1.100698411E-1,-3.828516230E-2,-9.939785004E0
3.647793243E0,-1.148554832E-1,-2.871387079E-2,-9.944570541E0
3.657459701E0,-1.100698411E-1,-2.392822690E-2,-9.934999466E0
3.667126160E0,-1.100698411E-1,-2.871387079E-2,-9.949356079E0
3.676792670E0,-1.100698411E-1,-1.914258115E-2,-9.934999466E0
3.686459128E0,-1.148554832E-1,-1.914258115E-2,-9.939785004E0
3.696125639E0,-1.100698411E-1,-1.914258115E-2,-9.939785004E0
3.705792097E0,-1.100698411E-1,-3.828516230E-2,-9.930213928E0
3.715458608E0,-1.148554832E-1,-4.307080805E-2,-9.930213928E0
3.725125066E0,-1.196411327E-1,-5.264209956E-2,-9.925428391E0
3.734791524E0,-1.196411327E-1,-3.349951655E-2,-9.934999466E0
3.744458035E0,-1.148554832E-1,-3.828516230E-2,-9.930213928E0
3.754124493E0,-9.092725813E-2,-3.828516230E-2,-9.944570541E0
3.763791003E0,-1.100698411E-1,-2.392822690E-2,-9.954142570E0
3.773457462E0,-1.148554832E-1,-1.435693540E-2,-9.920642853E0
3.783123972E0,-1.148554832E-1,-2.392822690E-2,-9.930213928E0
3.792790431E0,-1.100698411E-1,-9.571290575E-3,-9.934999466E0
3.802456889E0,-1.148554832E-1,-2.871387079E-2,-9.930213928E0
3.812123399E0,-1.196411327E-1,-4.307080805E-2,-9.949356079E0
3.821789858E0,-1.196411327E-1,-3.828516230E-2,-9.934999466E0
3.831456368E0,-1.004985496E-1,-2.871387079E-2,-9.934999466E0
3.841122826E0,-1.052841991E-1,-2.392822690E-2,-9.934999466E0
3.850789337E0,-1.196411327E-1,-2.871387079E-2,-9.930213928E0
3.860455795E0,-1.004985496E-1,-2.871387079E-2,-9.954142570E0
3.870122306E0,-1.196411327E-1,-3.828516230E-2,-9.939785004E0
3.879788764E0,-1.148554832E-1,-3.828516230E-2,-9.954142570E0
3.889455274E0,-1.052841991E-1,-2.871387079E-2,-9.939785004E0
3.899121733E0,-1.100698411E-1,-2.871387079E-2,-9.944570541E0
3.908788243E0,-1.100698411E-1,-1.914258115E-2,-9.934999466E0
3.918454701E0,-1.196411327E-1,-2.871387079E-2,-9.944570541E0
3.928121212E0,-9.092725813E-2,-2.392822690E-2,-9.949356079E0
3.937787670E0,-1.196411327E-1,-1.914258115E-2,-9.944570541E0
3.947454181E0,-1.100698411E-1,-3.828516230E-2,-9.954142570E0
3.957120639E0,-1.052841991E-1,-4.785645381E-2,-9.939785004E0
3.966787149E0,-1.052841991E-1,-3.349951655E-2,-9.934999466E0
3.976453608E0,-9.571290761E-2,-4.307080805E-2,-9.934999466E0
3.986120118E0,-1.052841991E-1,-3.828516230E-2,-9.944570541E0
3.995786576E0,-1.244267747E-1,-3.349951655E-2,-9.939785004E0
4.005453087E0,-1.052841991E-1,-2.871387079E-2,-9.939785004E0
4.015119597E0,-1.100698411E-1,-3.349951655E-2,-9.930213928E0
4.024786056E0,-1.100698411E-1,-3.349951655E-2,-9.949356079E0
4.034452566E0,-1.052841991E-1,-2.871387079E-2,-9.949356079E0
4.044119024E0,-1.052841991E-1,-2.871387079E-2,-9.939785004E0
4.053785535E0,-1.052841991E-1,-3.349951655E-2,-9.954142570E0
4.063451993E0,-1.004985496E-1,-2.871387079E-2,-9.930213928E0
4.073118503E0,-1.148554832E-1,-2.392822690E-2,-9.944570541E0
4.082784962E0,-1.052841991E-1,-2.392822690E-2,-9.934999466E0
4.092451472E0,-9.092725813E-2,-3.349951655E-2,-9.944570541E0
4.102117931E0,-1.100698411E-1,-4.307080805E-2,-9.944570541E0
4.111784441E0,-9.092725813E-2,-4.307080805E-2,-9.930213928E0
4.121450951E0,-1.196411327E-1,-2.871387079E-2,-9.944570541E0
4.131117410E0,-1.148554832E-1,-3.349951655E-2,-9.944570541E0
4.140783920E0,-1.196411327E-1,-3.828516230E-2,-9.934999466E0
4.150450378E0,-1.100698411E-1,-3.349951655E-2,-9.944570541E0
4.160116889E0,-9.571290761E-2,-3.349951655E-2,-9.949356079E0
4.169783347E0,-1.100698411E-1,-9.571290575E-3,-9.934999466E0
4.179449858E0,-1.100698411E-1,-2.871387079E-2,-9.934999466E0
4.189116368E0,-9.571290761E-2,-2.871387079E-2,-9.934999466E0
4.198782826E0,-9.092725813E-2,-2.392822690E-2,-9.930213928E0
4.208449337E0,-1.148554832E-1,-3.349951655E-2,-9.944570541E0
4.218115795E0,-1.052841991E-1,-3.349951655E-2,-9.949356079E0
4.227782306E0,-1.100698411E-1,-2.871387079E-2,-9.944570541E0
4.237448816E0,-1.148554832E-1,-4.307080805E-2,-9.944570541E0
4.247115274E0,-1.148554832E-1,-3.828516230E-2,-9.944570541E0
4.256781785E0,-1.100698411E-1,-2.392822690E-2,-9.944570541E0
4.266448295E0,-9.571290761E-2,-2.392822690E-2,-9.930213928E0
4.276114753E0,-9.571290761E-2,-3.349951655E-2,-9.939785004E0
4.285781264E0,-1.052841991E-1,-2.871387079E-2,-9.934999466E0
4.295447722E0,-1.196411327E-1,-3.349951655E-2,-9.949356079E0
4.305114233E0,-1.148554832E-1,-2.871387079E-2,-9.934999466E0
4.314780743E0,-1.196411327E-1,-3.349951655E-2,-9.944570541E0
4.324447201E0,-1.148554832E-1,-4.307080805E-2,-9.944570541E0
4.334113712E0,-1.004985496E-1,-2.871387079E-2,-9.939785004E0
4.343780222E0,-1.004985496E-1,-3.349951655E-2,-9.949356079E0
4.353446681E0,-1.052841991E-1,-3.349951655E-2,-9.934999466E0
4.363113191E0,-1.196411327E-1,-3.828516230E-2,-9.944570541E0
4.372779701E0,-1.196411327E-1,-1.914258115E-2,-9.939785004E0
4.382446160E0,-1.052841991E-1,-3.349951655E-2,-9.939785004E0
4.392112670E0,-1.100698411E-1,-2.871387079E-2,-9.954142570E0
4.401779181E0,-1.292124242E-1,-3.349951655E-2,-9.930213928E0
4.411445639E0,-1.244267747E-1,-3.828516230E-2,-9.949356079E0
4.421112149E0,-9.571290761E-2,-3.349951655E-2,-9.958928108E0
4.430778660E0,-1.004985496E-1,-2.392822690E-2,-9.930213928E0
4.440445118E0,-1.148554832E-1,-1.914258115E-2,-9.954142570E0
4.450111628E0,-1.148554832E-1,-2.871387079E-2,-9.954142570E0
4.459778139E0,-1.052841991E-1,-4.307080805E-2,-9.958928108E0
4.469444649E0,-1.100698411E-1,-1.914258115E-2,-9.954142570E0
4.479111108E0,-1.148554832E-1,-4.307080805E-2,-9.963713646E0
4.488777618E0,-1.100698411E-1,-2.392822690E-2,-9.954142570E0
4.498444128E0,-1.196411327E-1,-3.349951655E-2,-9.934999466E0
4.508110587E0,-1.196411327E-1,-3.349951655E-2,-9.949356079E0
4.517777097E0,-1.100698411E-1,-4.307080805E-2,-9.939785004E0
4.527443608E0,-1.100698411E-1,-1.914258115E-2,-9.930213928E0
4.537110066E0,-1.052841991E-1,-3.349951655E-2,-9.939785004E0
4.546776576E0,-1.100698411E-1,-3.349951655E-2,-9.934999466E0
4.556443087E0,-1.196411327E-1,-3.828516230E-2,-9.939785004E0
4.566109597E0,-1.148554832E-1,-2.392822690E-2,-9.930213928E0
4.575776056E0,-1.100698411E-1,-3.349951655E-2,-9.934999466E0
4.585442566E0,-1.052841991E-1,-2.392822690E-2,-9.934999466E0
4.595109076E0,-1.148554832E-1,-3.349951655E-2,-9.939785004E0
4.604775535E0,-1.244267747E-1,-3.349951655E-2,-9.934999466E0
4.614442045E0,-1.148554832E-1,-3.349951655E-2,-9.954142570E0
4.624108556E0,-1.100698411E-1,-4.307080805E-2,-9.949356079E0
4.633775066E0,-1.052841991E-1,-4.785645381E-2,-9.949356079E0
4.643441524E0,-1.100698411E-1,-4.307080805E-2,-9.939785004E0
4.653108035E0,-1.148554832E-1,-2.392822690E-2,-9.944570541E0
4.662774545E0,-1.148554832E-1,-3.828516230E-2,-9.944570541E0
4.672441056E0,-1.196411327E-1,-3.828516230E-2,-9.939785004E0
4.682107514E0,-1.052841991E-1,-3.349951655E-2,-9.939785004E0
4.691774024E0,-1.100698411E-1,-3.828516230E-2,-9.939785004E0
4.701440535E0,-8.614161611E-2,-3.828516230E-2,-9.949356079E0
4.711107045E0,-1.004985496E-1,-2.871387079E-2,-9.934999466E0
4.720773503E0,-1.052841991E-1,-3.828516230E-2,-9.939785004E0
4.730440014E0,-1.148554832E-1,-2.871387079E-2,-9.939785004E0
4.740106524E0,-1.196411327E-1,-2.871387079E-2,-9.949356079E0
4.749773035E0,-1.292124242E-1,-2.871387079E-2,-9.944570541E0
4.759439493E0,-1.196411327E-1,-4.785645381E-2,-9.944570541E0
4.769106003E0,-1.100698411E-1,-4.785645381E-2,-9.944570541E0
4.778772514E0,-9.571290761E-2,-3.828516230E-2,-9.949356079E0
4.788439024E0,-1.196411327E-1,-1.435693540E-2,-9.944570541E0
4.798105483E0,-1.244267747E-1,-2.392822690E-2,-9.949356079E0
4.807771993E0,-1.148554832E-1,-3.349951655E-2,-9.954142570E0
4.817438503E0,-1.052841991E-1,-1.914258115E-2,-9.949356079E0
4.827105014E0,-1.052841991E-1,-1.435693540E-2,-9.944570541E0
4.836771524E0,-1.100698411E-1,-2.871387079E-2,-9.944570541E0
4.846437983E0,-1.100698411E-1,-3.349951655E-2,-9.949356079E0
4.856104441E0,-1.196411327E-1,-3.349951655E-2,-9.930213928E0
4.865771003E0,-1.100698411E-1,-2.871387079E-2,-9.949356079E0
4.875437514E0,-9.571290761E-2,-2.392822690E-2,-9.963713646E0
4.885104024E0,-1.148554832E-1,-3.349951655E-2,-9.954142570E0
4.894770483E0,-1.100698411E-1,-3.349951655E-2,-9.963713646E0
4.904436993E0,-1.004985496E-1,-2.392822690E-2,-9.944570541E0
4.914103503E0,-1.004985496E-1,-1.914258115E-2,-9.944570541E0
4.923770014E0,-1.148554832E-1,-2.392822690E-2,-9.949356079E0
4.933436524E0,-1.148554832E-1,-3.349951655E-2,-9.954142570E0
4.943102983E0,-1.148554832E-1,-3.349951655E-2,-9.958928108E0
4.952769493E0,-1.244267747E-1,-4.307080805E-2,-9.944570541E0
4.962436003E0,-1.052841991E-1,-3.828516230E-2,-9.939785004E0
4.972102514E0,-1.004985496E-1,-4.307080805E-2,-9.944570541E0
4.981769024E0,-9.571290761E-2,-3.828516230E-2,-9.944570541E0
4.991435535E0,-1.052841991E-1,-2.392822690E-2,-9.934999466E0
5.001101993E0,-1.148554832E-1,-2.392822690E-2,-9.954142570E0
5.010768503E0,-1.148554832E-1,-2.392822690E-2,-9.949356079E0
5.020435014E0,-1.100698411E-1,-3.349951655E-2,-9.944570541E0
5.030101524E0,-1.196411327E-1,-3.349951655E-2,-9.949356079E0
5.039768035E0,-1.148554832E-1,-1.914258115E-2,-9.944570541E0
5.049434545E0,-1.100698411E-1,-4.307080805E-2,-9.944570541E0
5.059101003E0,-8.614161611E-2,-4.307080805E-2,-9.949356079E0
5.068767514E0,-1.100698411E-1,-3.349951655E-2,-9.954142570E0
5.078434024E0,-1.148554832E-1,-1.914258115E-2,-9.934999466E0
5.088100535E0,-1.100698411E-1,-2.392822690E-2,-9.944570541E0
5.097767045E0,-1.100698411E-1,-3.349951655E-2,-9.963713646E0
5.107433556E0,-1.244267747E-1,-4.307080805E-2,-9.944570541E0
5.117100014E0,-1.196411327E-1,-2.392822690E-2,-9.954142570E0
5.126766524E0,-1.100698411E-1,-2.871387079E-2,-9.949356079E0
5.136433035E0,-1.052841991E-1,-3.349951655E-2,-9.958928108E0
5.146099545E0,-1.148554832E-1,-1.914258115E-2,-9.944570541E0
5.155766056E0,-1.196411327E-1,-3.349951655E-2,-9.944570541E0
5.165432566E0,-1.100698411E-1,-4.307080805E-2,-9.949356079E0
5.175099076E0,-1.052841991E-1,-3.828516230E-2,-9.939785004E0
5.184765587E0,-1.196411327E-1,-2.392822690E-2,-9.939785004E0
5.194432045E0,-1.148554832E-1,-3.828516230E-2,-9.949356079E0
5.204098556E0,-1.100698411E-1,-3.349951655E-2,-9.934999466E0
5.213765066E0,-1.052841991E-1,-3.828516230E-2,-9.930213928E0
5.223431576E0,-8.614161611E-2,-3.828516230E-2,-9.939785004E0
5.233098087E0,-1.196411327E-1,-2.871387079E-2,-9.939785004E0
5.242764597E0,-1.100698411E-1,-2.392822690E-2,-9.954142570E0
5.252431108E0,-1.148554832E-1,-2.392822690E-2,-9.944570541E0
5.262097566E0,-1.052841991E-1,-2.871387079E-2,-9.944570541E0
5.271764076E0,-1.196411327E-1,-1.914258115E-2,-9.949356079E0
5.281430587E0,-1.004985496E-1,-3.349951655E-2,-9.944570541E0
5.291097097E0,-1.004985496E-1,-2.392822690E-2,-9.954142570E0
5.300763608E0,-9.571290761E-2,-3.349951655E-2,-9.939785004E0
5.310430118E0,-1.100698411E-1,-3.349951655E-2,-9.939785004E0
5.320096628E0,-1.196411327E-1,-2.871387079E-2,-9.939785004E0
5.329763139E0,-1.004985496E-1,-4.307080805E-2,-9.949356079E0
5.339429649E0,-1.148554832E-1,-4.307080805E-2,-9.949356079E0
5.349096108E0,-1.052841991E-1,-3.828516230E-2,-9.949356079E0
5.358762618E0,-1.148554832E-1,-3.349951655E-2,-9.944570541E0
5.368429128E0,-1.148554832E-1,-3.349951655E-2,-9.939785004E0
5.378095639E0,-1.100698411E-1,-2.392822690E-2,-9.939785004E0
5.387762149E0,-1.148554832E-1,-3.349951655E-2,-9.949356079E0
5.397428660E0,-1.196411327E-1,-2.392822690E-2,-9.934999466E0
5.407095170E0,-1.148554832E-1,-1.435693540E-2,-9.944570541E0
5.416761681E0,-1.148554832E-1,-2.871387079E-2,-9.939785004E0
5.426428191E0,-1.196411327E-1,-5.264209956E-2,-9.939785004E0
5.436094701E0,-1.004985496E-1,-2.871387079E-2,-9.958928108E0
5.445761212E0,-1.196411327E-1,-4.307080805E-2,-9.954142570E0
5.455427670E0,-1.004985496E-1,-2.871387079E-2,-9.934999466E0
5.465094233E0,-1.148554832E-1,-2.392822690E-2,-9.934999466E0
5.474760691E0,-1.100698411E-1,-4.307080805E-2,-9.939785004E0
5.484427201E0,-1.052841991E-1,-3.349951655E-2,-9.944570541E0
5.494093712E0,-9.092725813E-2,-3.828516230E-2,-9.949356079E0
5.503760222E0,-1.148554832E-1,-4.785645287E-3,-9.944570541E0
5.513426733E0,-1.004985496E-1,-1.435693540E-2,-9.944570541E0
5.523093243E0,-1.148554832E-1,-3.349951655E-2,-9.934999466E0
5.532759753E0,-1.148554832E-1,-3.828516230E-2,-9.939785004E0
5.542426264E0,-1.100698411E-1,-3.349951655E-2,-9.954142570E0
5.552092774E0,-1.100698411E-1,-5.264209956E-2,-9.944570541E0
5.561759285E0,-1.052841991E-1,-4.307080805E-2,-9.954142570E0
5.571425795E0,-1.004985496E-1,-3.349951655E-2,-9.949356079E0
5.581092253E0,-1.052841991E-1,-1.914258115E-2,-9.949356079E0
5.590758764E0,-1.052841991E-1,-3.828516230E-2,-9.939785004E0
5.600425274E0,-1.052841991E-1,-1.914258115E-2,-9.954142570E0
5.610091785E0,-1.004985496E-1,-2.392822690E-2,-9.944570541E0
5.619758295E0,-1.052841991E-1,-3.828516230E-2,-9.939785004E0
5.629424806E0,-1.244267747E-1,-1.914258115E-2,-9.939785004E0
5.639091316E0,-1.052841991E-1,-2.871387079E-2,-9.930213928E0
5.648757826E0,-1.052841991E-1,-2.871387079E-2,-9.944570541E0
5.658424337E0,-1.052841991E-1,-3.349951655E-2,-9.954142570E0
5.668090847E0,-9.571290761E-2,-2.871387079E-2,-9.949356079E0
5.677757358E0,-1.100698411E-1,-2.871387079E-2,-9.949356079E0
5.687423868E0,-1.244267747E-1,-2.871387079E-2,-9.954142570E0
5.697090378E0,-1.004985496E-1,-2.871387079E-2,-9.949356079E0
5.706756889E0,-1.100698411E-1,-3.349951655E-2,-9.944570541E0
5.716423399E0,-1.004985496E-1,-3.349951655E-2,-9.944570541E0
5.726089910E0,-1.244267747E-1,-1.914258115E-2,-9.949356079E0
5.735756420E0,-1.004985496E-1,-4.307080805E-2,-9.954142570E0
5.745422931E0,-1.004985496E-1,-2.871387079E-2,-9.934999466E0
5.755089441E0,-1.052841991E-1,-4.307080805E-2,-9.934999466E0
5.764755951E0,-1.196411327E-1,-3.828516230E-2,-9.944570541E0
5.774422462E0,-1.052841991E-1,-2.871387079E-2,-9.954142570E0
5.784088972E0,-1.148554832E-1,-2.392822690E-2,-9.944570541E0
5.793755431E0,-1.100698411E-1,-9.571290575E-3,-9.958928108E0
5.803421941E0,-1.148554832E-1,-2.871387079E-2,-9.954142570E0
5.813088451E0,-9.571290761E-2,-1.435693540E-2,-9.949356079E0
5.822755014E0,-1.148554832E-1,-3.349951655E-2,-9.934999466E0
5.832421472E0,-1.052841991E-1,-3.349951655E-2,-9.939785004E0
5.842087983E0,-1.196411327E-1,-3.828516230E-2,-9.954142570E0
5.851754493E0,-9.092725813E-2,-2.871387079E-2,-9.949356079E0
5.861421003E0,-1.196411327E-1,-3.828516230E-2,-9.949356079E0
5.871087514E0,-9.092725813E-2,-2.392822690E-2,-9.954142570E0
5.880754024E0,-1.004985496E-1,-3.349951655E-2,-9.954142570E0
5.890420535E0,-9.571290761E-2,-2.871387079E-2,-9.954142570E0
5.900087045E0,-9.571290761E-2,-3.349951655E-2,-9.949356079E0
5.909753556E0,-1.100698411E-1,-2.871387079E-2,-9.949356079E0
5.919420066E0,-1.052841991E-1,-2.392822690E-2,-9.958928108E0
5.929086576E0,-1.052841991E-1,-2.871387079E-2,-9.963713646E0
5.938753087E0,-1.004985496E-1,-4.785645381E-2,-9.949356079E0
5.948419597E0,-1.052841991E-1,-1.914258115E-2,-9.949356079E0
5.958086108E0,-1.100698411E-1,-2.871387079E-2,-9.944570541E0
5.967752618E0,-1.004985496E-1,-5.742774159E-2,-9.944570541E0
5.977419128E0,-1.052841991E-1,-4.307080805E-2,-9.949356079E0
5.987085639E0,-1.196411327E-1,-3.828516230E-2,-9.958928108E0
5.996752149E0,-1.004985496E-1,-2.871387079E-2,-9.958928108E0
6.006418660E0,-1.052841991E-1,-3.828516230E-2,-9.954142570E0
6.016085170E0,-1.196411327E-1,-3.349951655E-2,-9.949356079E0
6.025751681E0,-1.052841991E-1,-3.349951655E-2,-9.939785004E0
6.035418191E0,-9.571290761E-2,-3.828516230E-2,-9.939785004E0
6.045084701E0,-1.004985496E-1,-3.349951655E-2,-9.949356079E0
6.054751212E0,-1.004985496E-1,-2.871387079E-2,-9.944570541E0
6.064417722E0,-1.004985496E-1,-3.349951655E-2,-9.944570541E0
6.074084233E0,-1.148554832E-1,-3.349951655E-2,-9.944570541E0
6.083750743E0,-1.100698411E-1,-3.349951655E-2,-9.944570541E0
6.093417253E0,-1.004985496E-1,-3.828516230E-2,-9.939785004E0
6.103083764E0,-1.148554832E-1,-2.871387079E-2,-9.944570541E0
6.112750274E0,-1.004985496E-1,-2.871387079E-2,-9.949356079E0
6.122416785E0,-1.100698411E-1,-4.307080805E-2,-9.954142570E0
6.132083295E0,-1.148554832E-1,-2.871387079E-2,-9.944570541E0
6.141749858E0,-1.100698411E-1,-2.392822690E-2,-9.939785004E0
6.151416316E0,-1.196411327E-1,-3.349951655E-2,-9.958928108E0
6.161082826E0,-9.092725813E-2,-3.349951655E-2,-9.944570541E0
6.170749337E0,-1.148554832E-1,-3.349951655E-2,-9.949356079E0
6.180415847E0,-1.196411327E-1,-3.828516230E-2,-9.949356079E0
6.190082358E0,-1.148554832E-1,-2.392822690E-2,-9.944570541E0
6.199748868E0,-9.092725813E-2,-4.785645381E-2,-9.944570541E0
6.209415378E0,-1.052841991E-1,-4.785645381E-2,-9.958928108E0
6.219081889E0,-1.148554832E-1,-4.307080805E-2,-9.939785004E0
6.228748399E0,-1.148554832E-1,-2.392822690E-2,-9.949356079E0
6.238414910E0,-1.052841991E-1,-4.307080805E-2,-9.925428391E0
6.248081420E0,-1.004985496E-1,-2.871387079E-2,-9.934999466E0
6.257747931E0,-1.052841991E-1,-3.828516230E-2,-9.944570541E0
6.267414441E0,-1.100698411E-1,-4.307080805E-2,-9.949356079E0
6.277080951E0,-1.100698411E-1,-3.349951655E-2,-9.939785004E0
6.286747462E0,-1.052841991E-1,-3.349951655E-2,-9.944570541E0
6.296413972E0,-1.100698411E-1,-3.349951655E-2,-9.949356079E0
6.306080483E0,-1.148554832E-1,-2.871387079E-2,-9.949356079E0
6.315746993E0,-1.196411327E-1,-3.349951655E-2,-9.944570541E0
6.325413556E0,-9.571290761E-2,-3.828516230E-2,-9.949356079E0
6.335080014E0,-1.148554832E-1,-2.392822690E-2,-9.949356079E0
6.344746576E0,-1.052841991E-1,-2.871387079E-2,-9.944570541E0
6.354413087E0,-1.052841991E-1,-3.828516230E-2,-9.949356079E0
6.364079597E0,-1.196411327E-1,-2.871387079E-2,-9.949356079E0
6.373746108E0,-1.052841991E-1,-4.307080805E-2,-9.939785004E0
6.383412618E0,-1.004985496E-1,-4.785645381E-2,-9.934999466E0
6.393079128E0,-1.052841991E-1,-3.828516230E-2,-9.949356079E0
6.402745639E0,-1.052841991E-1,-2.871387079E-2,-9.944570541E0
6.412412149E0,-1.100698411E-1,-3.349951655E-2,-9.939785004E0
6.422078660E0,-1.196411327E-1,-2.392822690E-2,-9.949356079E0
6.431745170E0,-1.052841991E-1,-3.349951655E-2,-9.934999466E0
6.441411681E0,-1.100698411E-1,-1.914258115E-2,-9.954142570E0
6.451078191E0,-1.244267747E-1,-2.871387079E-2,-9.963713646E0
6.460744701E0,-1.148554832E-1,-1.914258115E-2,-9.939785004E0
6.470411212E0,-1.244267747E-1,-4.307080805E-2,-9.949356079E0
6.480077722E0,-1.196411327E-1,-3.349951655E-2,-9.954142570E0
6.489744233E0,-9.092725813E-2,-3.828516230E-2,-9.949356079E0
6.499410743E0,-1.148554832E-1,-3.349951655E-2,-9.949356079E0
6.509077253E0,-1.004985496E-1,-2.392822690E-2,-9.954142570E0
6.518743764E0,-1.148554832E-1,-2.392822690E-2,-9.954142570E0
6.528410274E0,-1.052841991E-1,-3.349951655E-2,-9.954142570E0
6.538076785E0,-1.052841991E-1,-4.307080805E-2,-9.954142570E0
6.547743295E0,-9.571290761E-2,-1.914258115E-2,-9.958928108E0
6.557409858E0,-9.092725813E-2,-5.264209956E-2,-9.944570541E0
6.567076368E0,-1.052841991E-1,-3.349951655E-2,-9.939785004E0
6.576742878E0,-1.148554832E-1,-2.392822690E-2,-9.954142570E0
6.586409389E0,-1.052841991E-1,-1.435693540E-2,-9.954142570E0
6.596075899E0,-1.100698411E-1,-4.307080805E-2,-9.939785004E0
6.605742410E0,-1.004985496E-1,-2.392822690E-2,-9.958928108E0
6.615408920E0,-1.100698411E-1,-3.349951655E-2,-9.954142570E0
6.625075431E0,-9.571290761E-2,-2.871387079E-2,-9.949356079E0
6.634741941E0,-1.004985496E-1,-3.828516230E-2,-9.939785004E0
6.644408451E0,-9.571290761E-2,-3.349951655E-2,-9.949356079E0
6.654074962E0,-1.052841991E-1,-1.914258115E-2,-9.949356079E0
6.663741472E0,-1.148554832E-1,-4.307080805E-2,-9.949356079E0
6.673407983E0,-1.196411327E-1,-2.871387079E-2,-9.963713646E0
6.683074493E0,-1.100698411E-1,-2.871387079E-2,-9.944570541E0
6.692741003E0,-1.004985496E-1,-3.349951655E-2,-9.944570541E0
6.702407514E0,-8.614161611E-2,-3.828516230E-2,-9.954142570E0
6.712074076E0,-1.148554832E-1,-3.828516230E-2,-9.958928108E0
6.721740535E0,-1.196411327E-1,-3.828516230E-2,-9.944570541E0
6.731407097E0,-1.052841991E-1,-2.392822690E-2,-9.944570541E0
6.741073608E0,-1.004985496E-1,-1.435693540E-2,-9.944570541E0
6.750740118E0,-1.100698411E-1,-2.392822690E-2,-9.949356079E0
6.760406628E0,-9.571290761E-2,-5.264209956E-2,-9.944570541E0
6.770073139E0,-1.100698411E-1,-2.392822690E-2,-9.954142570E0
6.779739649E0,-1.148554832E-1,-4.785645381E-2,-9.944570541E0
6.789406160E0,-9.571290761E-2,-1.914258115E-2,-9.958928108E0
6.799072670E0,-9.092725813E-2,-3.828516230E-2,-9.958928108E0
6.808739181E0,-1.004985496E-1,-4.307080805E-2,-9.944570541E0
6.818405691E0,-1.004985496E-1,-3.828516230E-2,-9.963713646E0
6.828072201E0,-1.196411327E-1,-2.392822690E-2,-9.963713646E0
6.837738712E0,-1.100698411E-1,-3.828516230E-2,-9.954142570E0
6.847405222E0,-9.092725813E-2,-2.871387079E-2,-9.963713646E0
6.857071733E0,-1.100698411E-1,-2.871387079E-2,-9.958928108E0
6.866738295E0,-1.100698411E-1,-2.871387079E-2,-9.939785004E0
6.876404806E0,-9.571290761E-2,-3.349951655E-2,-9.949356079E0
6.886071316E0,-1.148554832E-1,-3.828516230E-2,-9.954142570E0
6.895737826E0,-1.004985496E-1,-2.871387079E-2,-9.949356079E0
6.905404337E0,-1.148554832E-1,-2.871387079E-2,-9.954142570E0
6.915070847E0,-1.004985496E-1,-2.871387079E-2,-9.949356079E0
6.924737358E0,-1.148554832E-1,-3.349951655E-2,-9.949356079E0
6.934403868E0,-1.100698411E-1,-3.828516230E-2,-9.963713646E0
6.944070378E0,-1.100698411E-1,-1.435693540E-2,-9.958928108E0
6.953736889E0,-1.100698411E-1,-1.914258115E-2,-9.958928108E0
6.963403399E0,-1.100698411E-1,-4.785645381E-2,-9.944570541E0
6.973069962E0,-9.092725813E-2,-2.392822690E-2,-9.949356079E0
6.982736472E0,-1.196411327E-1,-3.828516230E-2,-9.944570541E0
6.992402983E0,-1.148554832E-1,-3.349951655E-2,-9.954142570E0
7.002069493E0,-1.148554832E-1,-2.392822690E-2,-9.949356079E0
7.011736003E0,-1.004985496E-1,-1.435693540E-2,-9.939785004E0
7.021402514E0,-1.052841991E-1,-2.392822690E-2,-9.954142570E0
7.031069024E0,-9.571290761E-2,-3.349951655E-2,-9.944570541E0
7.040735535E0,-1.148554832E-1,-2.871387079E-2,-9.963713646E0
7.050402045E0,-1.148554832E-1,-4.307080805E-2,-9.930213928E0
7.060068556E0,-1.100698411E-1,-1.914258115E-2,-9.944570541E0
7.069735066E0,-1.052841991E-1,-1.914258115E-2,-9.954142570E0
7.079401628E0,-1.004985496E-1,-2.871387079E-2,-9.939785004E0
7.089068139E0,-1.052841991E-1,-3.828516230E-2,-9.930213928E0
7.098734649E0,-1.100698411E-1,-4.307080805E-2,-9.930213928E0
7.108401160E0,-1.148554832E-1,-3.349951655E-2,-9.958928108E0
7.118067670E0,-1.004985496E-1,-2.392822690E-2,-9.958928108E0
7.127734181E0,-1.148554832E-1,-2.392822690E-2,-9.949356079E0
7.137400691E0,-9.092725813E-2,-4.785645381E-2,-9.949356079E0
7.147067201E0,-1.052841991E-1,-1.914258115E-2,-9.939785004E0
7.156733712E0,-1.052841991E-1,-3.828516230E-2,-9.949356079E0
7.166400222E0,-1.100698411E-1,-4.307080805E-2,-9.958928108E0
7.176066733E0,-1.052841991E-1,-1.914258115E-2,-9.954142570E0
7.185733295E0,-8.614161611E-2,-2.392822690E-2,-9.954142570E0
7.195399806E0,-1.196411327E-1,-3.349951655E-2,-9.939785004E0
7.205066316E0,-1.052841991E-1,-4.785645381E-2,-9.954142570E0
7.214732826E0,-1.004985496E-1,-3.828516230E-2,-9.954142570E0
7.224399337E0,-1.004985496E-1,-3.828516230E-2,-9.958928108E0
7.234065847E0,-1.100698411E-1,-1.914258115E-2,-9.968499184E0
7.243732358E0,-1.052841991E-1,-2.871387079E-2,-9.949356079E0
7.253398868E0,-1.196411327E-1,-3.349951655E-2,-9.954142570E0
7.263065378E0,-1.052841991E-1,-1.914258115E-2,-9.944570541E0
7.272731889E0,-1.100698411E-1,-1.435693540E-2,-9.944570541E0
7.282398451E0,-1.148554832E-1,-1.435693540E-2,-9.963713646E0
7.292064962E0,-1.052841991E-1,-2.392822690E-2,-9.934999466E0
7.301731472E0,-1.196411327E-1,-1.914258115E-2,-9.934999466E0
7.311397931E0,-1.196411327E-1,-3.349951655E-2,-9.944570541E0
7.321064493E0,-1.148554832E-1,-2.392822690E-2,-9.963713646E0
7.330731003E0,-1.148554832E-1,-3.349951655E-2,-9.949356079E0
7.340397514E0,-1.004985496E-1,-4.785645381E-2,-9.944570541E0
7.350064024E0,-1.052841991E-1,-2.392822690E-2,-9.958928108E0
7.359730535E0,-9.571290761E-2,-3.349951655E-2,-9.939785004E0
7.369397045E0,-1.148554832E-1,-3.349951655E-2,-9.944570541E0
7.379063608E0,-1.052841991E-1,-3.828516230E-2,-9.944570541E0
7.388730118E0,-9.571290761E-2,-3.828516230E-2,-9.944570541E0
7.398396628E0,-1.052841991E-1,-3.349951655E-2,-9.939785004E0
7.408063139E0,-1.004985496E-1,-3.828516230E-2,-9.934999466E0
7.417729649E0,-1.100698411E-1,-2.871387079E-2,-9.949356079E0
7.427396160E0,-1.148554832E-1,-2.871387079E-2,-9.934999466E0
7.437062670E0,-1.100698411E-1,-3.349951655E-2,-9.963713646E0
7.446729181E0,-1.148554832E-1,-3.828516230E-2,-9.949356079E0
7.456395743E0,-1.244267747E-1,-2.871387079E-2,-9.954142570E0
7.466062253E0,-1.004985496E-1,-2.871387079E-2,-9.944570541E0
7.475728764E0,-1.052841991E-1,-3.349951655E-2,-9.958928108E0
7.485395274E0,-1.004985496E-1,-2.871387079E-2,-9.954142570E0
7.495061785E0,-9.571290761E-2,-4.307080805E-2,-9.958928108E0
7.504728295E0,-9.092725813E-2,-2.871387079E-2,-9.944570541E0
7.514394806E0,-1.004985496E-1,-2.871387079E-2,-9.958928108E0
7.524061316E0,-9.092725813E-2,-2.392822690E-2,-9.939785004E0
7.533727826E0,-1.004985496E-1,-3.349951655E-2,-9.963713646E0
7.543394389E0,-1.004985496E-1,-2.871387079E-2,-9.939785004E0
7.553060899E0,-1.052841991E-1,-3.349951655E-2,-9.949356079E0
7.562727410E0,-1.148554832E-1,-2.871387079E-2,-9.944570541E0
7.572393920E0,-1.100698411E-1,-3.828516230E-2,-9.949356079E0
7.582060431E0,-1.244267747E-1,-1.435693540E-2,-9.944570541E0
7.591726941E0,-1.100698411E-1,-3.828516230E-2,-9.954142570E0
7.601393451E0,-1.100698411E-1,-1.914258115E-2,-9.949356079E0
7.611059962E0,-1.148554832E-1,-3.349951655E-2,-9.954142570E0
7.620726472E0,-1.100698411E-1,-3.828516230E-2,-9.954142570E0
7.630392983E0,-9.571290761E-2,-3.349951655E-2,-9.949356079E0
7.640059545E0,-9.092725813E-2,-2.392822690E-2,-9.958928108E0
7.649726056E0,-1.052841991E-1,-4.307080805E-2,-9.949356079E0
7.659392566E0,-1.148554832E-1,-2.871387079E-2,-9.949356079E0
7.669059076E0,-1.100698411E-1,-4.307080805E-2,-9.949356079E0
7.678725587E0,-1.052841991E-1,-3.349951655E-2,-9.944570541E0
7.688392097E0,-1.196411327E-1,-2.871387079E-2,-9.954142570E0
7.698058660E0,-1.100698411E-1,-1.914258115E-2,-9.949356079E0
7.707725170E0,-1.100698411E-1,-2.871387079E-2,-9.954142570E0
7.717391681E0,-1.052841991E-1,-2.392822690E-2,-9.944570541E0
7.727058191E0,-8.614161611E-2,-3.349951655E-2,-9.934999466E0
7.736724701E0,-1.196411327E-1,-3.828516230E-2,-9.954142570E0
7.746391212E0,-1.148554832E-1,-3.828516230E-2,-9.949356079E0
7.756057722E0,-1.196411327E-1,-4.307080805E-2,-9.939785004E0
7.765724233E0,-1.100698411E-1,-2.871387079E-2,-9.944570541E0
7.775390795E0,-1.004985496E-1,-3.349951655E-2,-9.944570541E0
7.785057306E0,-1.100698411E-1,-4.307080805E-2,-9.944570541E0
7.794723816E0,-9.571290761E-2,-5.264209956E-2,-9.954142570E0
7.804390326E0,-1.052841991E-1,-4.785645287E-3,-9.934999466E0
7.814056837E0,-1.148554832E-1,-2.392822690E-2,-9.954142570E0
7.823723347E0,-9.571290761E-2,-2.871387079E-2,-9.954142570E0
7.833389858E0,-1.100698411E-1,-1.914258115E-2,-9.958928108E0
7.843056368E0,-1.004985496E-1,-4.307080805E-2,-9.949356079E0
7.852722931E0,-1.004985496E-1,-2.871387079E-2,-9.944570541E0
7.862389441E0,-1.004985496E-1,-3.349951655E-2,-9.939785004E0
7.872055951E0,-1.004985496E-1,-5.742774159E-2,-9.958928108E0
7.881722462E0,-1.004985496E-1,-3.349951655E-2,-9.958928108E0
7.891388972E0,-1.100698411E-1,-2.392822690E-2,-9.954142570E0
7.901055483E0,-1.004985496E-1,-2.871387079E-2,-9.963713646E0
7.910721993E0,-1.100698411E-1,-3.828516230E-2,-9.949356079E0
7.920388556E0,-1.100698411E-1,-4.307080805E-2,-9.958928108E0
7.930055066E0,-1.148554832E-1,-3.828516230E-2,-9.958928108E0
7.939721576E0,-1.244267747E-1,-2.392822690E-2,-9.954142570E0
7.949388087E0,-1.052841991E-1,-1.914258115E-2,-9.949356079E0
7.959054597E0,-1.148554832E-1,-3.349951655E-2,-9.944570541E0
7.968721108E0,-1.148554832E-1,-2.392822690E-2,-9.949356079E0
7.978387618E0,-1.100698411E-1,-4.307080805E-2,-9.954142570E0
7.988054181E0,-1.196411327E-1,-4.307080805E-2,-9.949356079E0
7.997720691E0,-1.196411327E-1,-3.349951655E-2,-9.944570541E0
8.007387201E0,-1.052841991E-1,-2.871387079E-2,-9.963713646E0
8.017053712E0,-1.292124242E-1,-3.828516230E-2,-9.949356079E0
8.026720222E0,-1.148554832E-1,-2.392822690E-2,-9.939785004E0
8.036386733E0,-9.571290761E-2,-4.307080805E-2,-9.949356079E0
8.046053243E0,-1.196411327E-1,-2.871387079E-2,-9.954142570E0
8.055719806E0,-1.100698411E-1,-2.871387079E-2,-9.944570541E0
8.065386316E0,-1.004985496E-1,-3.349951655E-2,-9.954142570E0
8.075052826E0,-1.244267747E-1,-3.828516230E-2,-9.944570541E0
8.084719337E0,-1.100698411E-1,-2.392822690E-2,-9.958928108E0
8.094385847E0,-1.052841991E-1,-1.914258115E-2,-9.958928108E0
8.104052358E0,-1.100698411E-1,-2.871387079E-2,-9.949356079E0
8.113718920E0,-1.148554832E-1,-4.307080805E-2,-9.954142570E0
8.123385431E0,-1.052841991E-1,-2.871387079E-2,-9.963713646E0
8.133051941E0,-9.571290761E-2,-3.349951655E-2,-9.954142570E0
8.142718451E0,-1.196411327E-1,-3.349951655E-2,-9.949356079E0
8.152384962E0,-1.196411327E-1,-4.307080805E-2,-9.944570541E0
8.162051472E0,-1.052841991E-1,-2.392822690E-2,-9.939785004E0
8.171717983E0,-1.100698411E-1,-3.828516230E-2,-9.944570541E0
8.181384493E0,-1.004985496E-1,-2.871387079E-2,-9.944570541E0
8.191051056E0,-1.100698411E-1,-3.828516230E-2,-9.944570541E0
8.200717566E0,-1.148554832E-1,-2.871387079E-2,-9.958928108E0
8.210384076E0,-1.148554832E-1,-3.828516230E-2,-9.949356079E0
8.220050587E0,-1.100698411E-1,-3.828516230E-2,-9.958928108E0
8.229717097E0,-1.100698411E-1,-4.307080805E-2,-9.944570541E0
8.239383608E0,-1.100698411E-1,-3.828516230E-2,-9.968499184E0
8.249050170E0,-1.148554832E-1,-4.307080805E-2,-9.954142570E0
8.258716681E0,-1.100698411E-1,-2.871387079E-2,-9.954142570E0
8.268383191E0,-1.052841991E-1,-1.435693540E-2,-9.958928108E0
8.278049701E0,-1.100698411E-1,-3.349951655E-2,-9.944570541E0
8.287716212E0,-1.052841991E-1,-9.571290575E-3,-9.958928108E0
8.297382722E0,-1.292124242E-1,-3.349951655E-2,-9.963713646E0
8.307049285E0,-1.196411327E-1,-2.871387079E-2,-9.939785004E0
8.316715795E0,-1.100698411E-1,-4.307080805E-2,-9.949356079E0
8.326382306E0,-1.148554832E-1,-3.828516230E-2,-9.958928108E0
8.336048816E0,-1.004985496E-1,-3.349951655E-2,-9.954142570E0
8.345715326E0,-1.100698411E-1,-2.871387079E-2,-9.968499184E0
8.355381837E0,-1.052841991E-1,-2.392822690E-2,-9.944570541E0
8.365048347E0,-9.571290761E-2,-2.871387079E-2,-9.958928108E0
8.374714910E0,-1.148554832E-1,-3.349951655E-2,-9.958928108E0
8.384381420E0,-1.052841991E-1,-3.349951655E-2,-9.939785004E0
8.394047931E0,-9.092725813E-2,-1.914258115E-2,-9.944570541E0
8.403714441E0,-1.004985496E-1,-2.392822690E-2,-9.949356079E0
8.413380951E0,-1.004985496E-1,-3.349951655E-2,-9.949356079E0
8.423047462E0,-1.100698411E-1,-3.828516230E-2,-9.954142570E0
8.432714024E0,-1.244267747E-1,-2.871387079E-2,-9.954142570E0
8.442380535E0,-1.052841991E-1,-2.871387079E-2,-9.949356079E0
8.452047045E0,-1.004985496E-1,-2.392822690E-2,-9.954142570E0
8.461713556E0,-1.100698411E-1,-2.392822690E-2,-9.949356079E0
8.471380066E0,-1.148554832E-1,-1.914258115E-2,-9.954142570E0
8.481046576E0,-1.052841991E-1,-4.785645381E-2,-9.939785004E0
8.490713139E0,-1.100698411E-1,-2.392822690E-2,-9.949356079E0
8.500379649E0,-1.148554832E-1,-2.871387079E-2,-9.949356079E0
8.510046160E0,-1.004985496E-1,-4.785645287E-3,-9.944570541E0
8.519712670E0,-1.052841991E-1,-3.828516230E-2,-9.949356079E0
8.529379181E0,-1.004985496E-1,-3.349951655E-2,-9.949356079E0
8.539045691E0,-1.004985496E-1,-2.871387079E-2,-9.958928108E0
8.548712201E0,-1.196411327E-1,-4.307080805E-2,-9.954142570E0
8.558378764E0,-1.100698411E-1,-4.307080805E-2,-9.958928108E0
8.568045274E0,-1.196411327E-1,-3.349951655E-2,-9.939785004E0
8.577711785E0,-1.100698411E-1,-3.349951655E-2,-9.944570541E0
8.587378295E0,-1.339980662E-1,-3.349951655E-2,-9.958928108E0
8.597044806E0,-1.100698411E-1,-2.392822690E-2,-9.944570541E0
8.606711368E0,-1.100698411E-1,-3.828516230E-2,-9.949356079E0
8.616377878E0,-1.004985496E-1,-3.349951655E-2,-9.954142570E0
8.626044389E0,-1.196411327E-1,-3.828516230E-2,-9.949356079E0
8.635710899E0,-1.148554832E-1,-2.871387079E-2,-9.954142570E0
8.645377410E0,-1.148554832E-1,-3.349951655E-2,-9.954142570E0
8.655043920E0,-1.052841991E-1,-3.828516230E-2,-9.963713646E0
8.664710431E0,-1.004985496E-1,-3.349951655E-2,-9.963713646E0
8.674376993E0,-1.148554832E-1,-4.307080805E-2,-9.944570541E0
8.684043503E0,-1.052841991E-1,-3.828516230E-2,-9.944570541E0
8.693710014E0,-1.100698411E-1,-5.264209956E-2,-9.949356079E0
8.703376524E0,-1.196411327E-1,-3.828516230E-2,-9.954142570E0
8.713043035E0,-9.571290761E-2,-4.307080805E-2,-9.958928108E0
8.722709545E0,-1.196411327E-1,-2.871387079E-2,-9.944570541E0
8.732376108E0,-1.196411327E-1,-3.828516230E-2,-9.944570541E0
8.742042618E0,-1.004985496E-1,-4.307080805E-2,-9.944570541E0
8.751709128E0,-1.100698411E-1,-3.828516230E-2,-9.949356079E0
8.761375639E0,-1.052841991E-1,-4.785645381E-2,-9.954142570E0
8.771042149E0,-1.148554832E-1,-3.349951655E-2,-9.949356079E0
8.780708712E0,-1.148554832E-1,-3.828516230E-2,-9.954142570E0
8.790375222E0,-1.244267747E-1,-1.914258115E-2,-9.944570541E0
8.800041733E0,-1.100698411E-1,-2.871387079E-2,-9.958928108E0
8.809708243E0,-1.004985496E-1,-3.828516230E-2,-9.939785004E0
8.819374753E0,-1.196411327E-1,-2.392822690E-2,-9.949356079E0
8.829041264E0,-1.052841991E-1,-2.392822690E-2,-9.944570541E0
8.838707826E0,-1.196411327E-1,-2.871387079E-2,-9.949356079E0
8.848374337E0,-9.571290761E-2,-4.307080805E-2,-9.939785004E0
8.858040847E0,-1.004985496E-1,-2.871387079E-2,-9.949356079E0
8.867707358E0,-1.196411327E-1,-3.349951655E-2,-9.944570541E0
8.877373868E0,-1.052841991E-1,-2.871387079E-2,-9.944570541E0
8.887040431E0,-1.148554832E-1,-3.828516230E-2,-9.939785004E0
8.896706941E0,-1.148554832E-1,-2.392822690E-2,-9.958928108E0
8.906373451E0,-1.196411327E-1,-3.828516230E-2,-9.954142570E0
8.916039962E0,-1.196411327E-1,-4.307080805E-2,-9.944570541E0
8.925706472E0,-1.004985496E-1,-3.828516230E-2,-9.949356079E0
8.935372983E0,-1.148554832E-1,-1.914258115E-2,-9.944570541E0
8.945039545E0,-9.571290761E-2,-1.914258115E-2,-9.954142570E0
8.954706056E0,-1.100698411E-1,-2.871387079E-2,-9.939785004E0
8.964372566E0,-1.148554832E-1,-2.392822690E-2,-9.949356079E0
8.974039076E0,-1.052841991E-1,-3.349951655E-2,-9.954142570E0
8.983705587E0,-1.148554832E-1,-2.871387079E-2,-9.958928108E0
8.993372149E0,-1.148554832E-1,-4.307080805E-2,-9.949356079E0
9.003038660E0,-1.004985496E-1,-3.349951655E-2,-9.939785004E0
9.012705170E0,-9.571290761E-2,-2.392822690E-2,-9.944570541E0
9.022371681E0,-1.100698411E-1,-3.349951655E-2,-9.939785004E0
9.032038191E0,-1.004985496E-1,-2.392822690E-2,-9.944570541E0
9.041704753E0,-1.052841991E-1,-4.785645381E-2,-9.949356079E0
9.051371264E0,-1.004985496E-1,-1.914258115E-2,-9.949356079E0
9.061037774E0,-1.148554832E-1,-2.871387079E-2,-9.954142570E0
9.070704285E0,-1.196411327E-1,-2.392822690E-2,-9.939785004E0
9.080370795E0,-1.004985496E-1,-2.871387079E-2,-9.944570541E0
9.090037358E0,-1.148554832E-1,-3.828516230E-2,-9.954142570E0
9.099703868E0,-1.004985496E-1,-2.392822690E-2,-9.954142570E0
9.109370378E0,-1.004985496E-1,-2.871387079E-2,-9.939785004E0
9.119036889E0,-1.148554832E-1,-2.871387079E-2,-9.949356079E0
9.128703399E0,-1.004985496E-1,-2.392822690E-2,-9.939785004E0
9.138369962E0,-1.052841991E-1,-2.871387079E-2,-9.949356079E0
9.148036472E0,-1.100698411E-1,-2.392822690E-2,-9.949356079E0
9.157702983E0,-1.052841991E-1,-4.307080805E-2,-9.939785004E0
9.167369493E0,-1.100698411E-1,-3.349951655E-2,-9.930213928E0
9.177036056E0,-1.100698411E-1,-4.785645381E-2,-9.944570541E0
9.186702566E0,-1.148554832E-1,-2.392822690E-2,-9.939785004E0
9.196369076E0,-1.004985496E-1,-3.349951655E-2,-9.939785004E0
9.206035587E0,-1.100698411E-1,-2.871387079E-2,-9.944570541E0
9.215702097E0,-1.148554832E-1,-1.914258115E-2,-9.939785004E0
9.225368660E0,-1.148554832E-1,-4.307080805E-2,-9.949356079E0
9.235035170E0,-1.052841991E-1,-1.914258115E-2,-9.944570541E0
9.244701681E0,-1.004985496E-1,-3.828516230E-2,-9.963713646E0
9.254368191E0,-1.100698411E-1,-3.828516230E-2,-9.958928108E0
9.264034753E0,-1.148554832E-1,-1.914258115E-2,-9.944570541E0
9.273701264E0,-1.196411327E-1,-1.914258115E-2,-9.949356079E0
9.283367774E0,-1.148554832E-1,-3.349951655E-2,-9.949356079E0
9.293034285E0,-1.148554832E-1,-3.349951655E-2,-9.944570541E0
9.302700847E0,-1.100698411E-1,-2.392822690E-2,-9.944570541E0
9.312367358E0,-1.004985496E-1,-2.871387079E-2,-9.954142570E0
9.322033868E0,-1.052841991E-1,-2.871387079E-2,-9.939785004E0
9.331700378E0,-1.292124242E-1,-4.307080805E-2,-9.944570541E0
9.341366941E0,-1.100698411E-1,-3.828516230E-2,-9.949356079E0
9.351033451E0,-1.004985496E-1,-3.828516230E-2,-9.949356079E0
9.360699962E0,-1.196411327E-1,-4.307080805E-2,-9.949356079E0
9.370366472E0,-1.148554832E-1,-4.307080805E-2,-9.954142570E0
9.380033035E0,-1.148554832E-1,-3.828516230E-2,-9.958928108E0
9.389699545E0,-1.052841991E-1,-5.742774159E-2,-9.934999466E0
9.399366056E0,-1.100698411E-1,-2.871387079E-2,-9.944570541E0
9.409032618E0,-1.196411327E-1,-2.871387079E-2,-9.944570541E0
9.418699128E0,-1.052841991E-1,-1.435693540E-2,-9.958928108E0
9.428365639E0,-1.052841991E-1,-3.828516230E-2,-9.944570541E0
9.438032149E0,-1.148554832E-1,-2.871387079E-2,-9.934999466E0
9.447698712E0,-1.004985496E-1,-2.392822690E-2,-9.954142570E0
9.457365222E0,-1.148554832E-1,-2.392822690E-2,-9.939785004E0
9.467031733E0,-1.004985496E-1,-2.392822690E-2,-9.949356079E0
9.476698243E0,-1.196411327E-1,-3.349951655E-2,-9.939785004E0
9.486364806E0,-1.100698411E-1,-4.307080805E-2,-9.939785004E0
9.496031316E0,-1.100698411E-1,-3.828516230E-2,-9.939785004E0
9.505697826E0,-9.092725813E-2,-3.349951655E-2,-9.944570541E0
9.515364389E0,-1.004985496E-1,-4.307080805E-2,-9.939785004E0
9.525030899E0,-1.148554832E-1,-2.871387079E-2,-9.934999466E0
9.534697410E0,-1.052841991E-1,-3.349951655E-2,-9.944570541E0
9.544363920E0,-1.052841991E-1,-4.307080805E-2,-9.939785004E0
9.554030483E0,-1.004985496E-1,-2.392822690E-2,-9.934999466E0
9.563696993E0,-9.571290761E-2,-3.828516230E-2,-9.939785004E0
9.573363503E0,-1.148554832E-1,-1.435693540E-2,-9.939785004E0
9.583030066E0,-1.148554832E-1,-2.392822690E-2,-9.939785004E0
9.592696576E0,-1.052841991E-1,-2.871387079E-2,-9.930213928E0
9.602363087E0,-1.196411327E-1,-3.349951655E-2,-9.944570541E0
9.612029649E0,-1.052841991E-1,-2.871387079E-2,-9.939785004E0
9.621696160E0,-1.100698411E-1,-3.349951655E-2,-9.934999466E0
9.631362670E0,-1.004985496E-1,-4.307080805E-2,-9.944570541E0
9.641029233E0,-9.092725813E-2,-4.785645381E-2,-9.934999466E0
9.650695743E0,-1.196411327E-1,-3.828516230E-2,-9.939785004E0
9.660362253E0,-1.052841991E-1,-1.914258115E-2,-9.944570541E0
9.670028816E0,-1.100698411E-1,-3.349951655E-2,-9.954142570E0
9.679695326E0,-9.571290761E-2,-3.349951655E-2,-9.949356079E0
9.689361837E0,-1.100698411E-1,-1.435693540E-2,-9.944570541E0
9.699028399E0,-1.052841991E-1,-3.349951655E-2,-9.934999466E0
9.708694910E0,-1.100698411E-1,-1.914258115E-2,-9.930213928E0
9.718361420E0,-1.148554832E-1,-1.435693540E-2,-9.920642853E0
9.728027983E0,-1.004985496E-1,-2.871387079E-2,-9.939785004E0
9.737694493E0,-1.052841991E-1,-2.871387079E-2,-9.944570541E0
9.747361056E0,-1.100698411E-1,-3.828516230E-2,-9.934999466E0
9.757027566E0,-1.004985496E-1,-3.349951655E-2,-9.934999466E0
9.766694024E0,-1.244267747E-1,-5.264209956E-2,-9.930213928E0
9.776360639E0,-1.100698411E-1,-1.914258115E-2,-9.939785004E0
9.786027149E0,-1.100698411E-1,-3.349951655E-2,-9.939785004E0
9.795693660E0,-1.052841991E-1,-3.349951655E-2,-9.939785004E0
9.805360222E0,-1.052841991E-1,-2.871387079E-2,-9.939785004E0
9.815026733E0,-1.148554832E-1,-3.349951655E-2,-9.930213928E0
9.824693295E0,-1.052841991E-1,-1.914258115E-2,-9.939785004E0
9.834363087E0,-1.148554832E-1,-3.349951655E-2,-9.944570541E0
9.844026316E0,-1.100698411E-1,-4.307080805E-2,-9.939785004E0
9.853692878E0,-1.148554832E-1,-2.871387079E-2,-9.944570541E0
9.863359389E0,-1.148554832E-1,-3.349951655E-2,-9.934999466E0
9.873025951E0,-1.100698411E-1,-3.828516230E-2,-9.934999466E0
9.882692462E0,-9.571290761E-2,-3.828516230E-2,-9.949356079E0
9.892358972E0,-1.052841991E-1,-2.871387079E-2,-9.925428391E0
9.902025535E0,-1.004985496E-1,-2.871387079E-2,-9.934999466E0
9.911692045E0,-1.148554832E-1,-4.785645381E-2,-9.934999466E0
9.921358608E0,-1.100698411E-1,-2.871387079E-2,-9.925428391E0
9.931025118E0,-9.571290761E-2,-1.914258115E-2,-9.944570541E0
9.940691681E0,-1.100698411E-1,-9.571290575E-3,-9.925428391E0
9.950358191E0,-1.100698411E-1,-2.392822690E-2,-9.925428391E0
9.960024753E0,-1.148554832E-1,-2.392822690E-2,-9.939785004E0
9.969691264E0,-1.052841991E-1,-3.349951655E-2,-9.930213928E0
9.979357774E0,-1.004985496E-1,-3.828516230E-2,-9.915857315E0
9.989024337E0,-1.052841991E-1,-3.349951655E-2,-9.934999466E0
9.998690847E0,-1.052841991E-1,-3.828516230E-2,-9.934999466E0
1.000835741E1,-1.148554832E-1,-2.871387079E-2,-9.920642853E0
1.001802392E1,-1.196411327E-1,-2.871387079E-2,-9.930213928E0
1.002769048E1,-9.571290761E-2,-4.307080805E-2,-9.925428391E0
1.003735699E1,-1.100698411E-1,-4.307080805E-2,-9.934999466E0
1.004702356E1,-1.052841991E-1,-3.349951655E-2,-9.939785004E0
1.005669007E1,-1.196411327E-1,-2.392822690E-2,-9.934999466E0
1.006635663E1,-1.004985496E-1,-3.349951655E-2,-9.944570541E0
1.007602314E1,-9.571290761E-2,-2.871387079E-2,-9.915857315E0
1.008568970E1,-1.004985496E-1,-3.349951655E-2,-9.944570541E0
1.009535621E1,-1.100698411E-1,-3.349951655E-2,-9.944570541E0
1.010502277E1,-1.244267747E-1,-2.871387079E-2,-9.930213928E0
1.011468928E1,-1.196411327E-1,-4.785645381E-2,-9.934999466E0
1.012435585E1,-9.571290761E-2,-3.828516230E-2,-9.930213928E0
1.013402236E1,-1.004985496E-1,-3.349951655E-2,-9.934999466E0
1.014368892E1,-1.052841991E-1,-2.871387079E-2,-9.934999466E0
1.015335543E1,-1.100698411E-1,-1.914258115E-2,-9.939785004E0
1.016302199E1,-9.092725813E-2,-1.914258115E-2,-9.930213928E0
1.017268850E1,-9.571290761E-2,-4.785645381E-2,-9.944570541E0
1.018235507E1,-9.092725813E-2,-4.785645381E-2,-9.934999466E0
1.019202163E1,-1.196411327E-1,-3.349951655E-2,-9.930213928E0
1.020168814E1,-1.052841991E-1,-2.871387079E-2,-9.939785004E0
1.021135470E1,-1.004985496E-1,-2.392822690E-2,-9.939785004E0
1.022102121E1,-1.100698411E-1,-3.349951655E-2,-9.925428391E0
1.023068777E1,-1.052841991E-1,-3.349951655E-2,-9.925428391E0
1.024035428E1,-1.148554832E-1,-4.307080805E-2,-9.934999466E0
1.025002085E1,-1.387837082E-1,-3.828516230E-2,-9.934999466E0
1.025968741E1,-1.100698411E-1,-3.828516230E-2,-9.920642853E0
1.026935392E1,-1.148554832E-1,-2.871387079E-2,-9.920642853E0
1.027902048E1,-1.100698411E-1,-3.349951655E-2,-9.934999466E0
1.028868699E1,-1.100698411E-1,-2.392822690E-2,-9.930213928E0
1.029835356E1,-1.244267747E-1,-9.571290575E-3,-9.930213928E0
1.030802007E1,-1.148554832E-1,-3.349951655E-2,-9.925428391E0
1.031768663E1,-1.244267747E-1,-2.871387079E-2,-9.934999466E0
1.032735319E1,-1.052841991E-1,-2.871387079E-2,-9.920642853E0
1.033701970E1,-1.052841991E-1,-3.349951655E-2,-9.920642853E0
1.034668626E1,-1.100698411E-1,-3.828516230E-2,-9.925428391E0
1.035635277E1,-1.004985496E-1,-1.914258115E-2,-9.930213928E0
1.036601934E1,-1.196411327E-1,-3.349951655E-2,-9.930213928E0
1.037568590E1,-1.052841991E-1,-2.871387079E-2,-9.930213928E0
1.038535241E1,-1.196411327E-1,-3.828516230E-2,-9.934999466E0
1.039501897E1,-1.052841991E-1,-1.914258115E-2,-9.934999466E0
1.040468554E1,-1.148554832E-1,-3.349951655E-2,-9.920642853E0
1.041435205E1,-1.148554832E-1,-4.785645381E-2,-9.930213928E0
1.042401861E1,-1.052841991E-1,-3.349951655E-2,-9.934999466E0
1.043368512E1,-1.052841991E-1,-4.785645381E-2,-9.930213928E0
1.044335168E1,-1.004985496E-1,-2.871387079E-2,-9.939785004E0
1.045301824E1,-1.196411327E-1,-4.785645381E-2,-9.930213928E0
1.046268481E1,-9.092725813E-2,-2.392822690E-2,-9.930213928E0
1.047235132E1,-1.148554832E-1,-3.349951655E-2,-9.930213928E0
1.048201783E1,-1.052841991E-1,-3.349951655E-2,-9.939785004E0
1.049168444E1,-1.004985496E-1,-2.871387079E-2,-9.934999466E0
1.050135095E1,-1.100698411E-1,-3.828516230E-2,-9.925428391E0
1.051101751E1,-1.004985496E-1,-2.871387079E-2,-9.925428391E0
1.052068408E1,-1.100698411E-1,-4.307080805E-2,-9.930213928E0
1.053035059E1,-1.100698411E-1,-3.828516230E-2,-9.934999466E0
1.054001715E1,-1.004985496E-1,-3.349951655E-2,-9.925428391E0
1.054968371E1,-1.196411327E-1,-2.392822690E-2,-9.939785004E0
1.055935027E1,-1.004985496E-1,-2.871387079E-2,-9.939785004E0
1.056901678E1,-9.571290761E-2,-3.828516230E-2,-9.939785004E0
1.057868335E1,-1.004985496E-1,-2.392822690E-2,-9.930213928E0
1.058834991E1,-1.244267747E-1,-2.871387079E-2,-9.930213928E0
1.059801647E1,-9.571290761E-2,-3.349951655E-2,-9.925428391E0
1.060768298E1,-1.148554832E-1,-2.392822690E-2,-9.934999466E0
1.061734955E1,-1.100698411E-1,-2.871387079E-2,-9.939785004E0
1.062701611E1,-1.196411327E-1,-3.828516230E-2,-9.915857315E0
1.063668267E1,-1.196411327E-1,-3.349951655E-2,-9.930213928E0
1.064634918E1,-1.100698411E-1,-9.571290575E-3,-9.934999466E0
1.065601574E1,-1.004985496E-1,-2.871387079E-2,-9.930213928E0
1.066568231E1,-1.100698411E-1,-4.307080805E-2,-9.925428391E0
1.067534887E1,-1.052841991E-1,-3.828516230E-2,-9.934999466E0
1.068501538E1,-1.100698411E-1,-1.914258115E-2,-9.954142570E0
1.069468194E1,-1.052841991E-1,-3.349951655E-2,-9.930213928E0
1.070434850E1,-1.100698411E-1,-3.828516230E-2,-9.925428391E0
1.071401501E1,-1.100698411E-1,-5.742774159E-2,-9.934999466E0
1.072368163E1,-1.196411327E-1,-3.828516230E-2,-9.930213928E0
1.073334814E1,-1.052841991E-1,-3.349951655E-2,-9.920642853E0
1.074301470E1,-1.244267747E-1,-3.828516230E-2,-9.939785004E0
1.075268126E1,-1.052841991E-1,-3.349951655E-2,-9.925428391E0
1.076234783E1,-1.244267747E-1,-3.828516230E-2,-9.920642853E0
1.077201439E1,-1.004985496E-1,-4.307080805E-2,-9.915857315E0
1.078168095E1,-1.148554832E-1,-3.349951655E-2,-9.939785004E0
1.079134746E1,-1.052841991E-1,-3.349951655E-2,-9.930213928E0
1.080101402E1,-1.052841991E-1,-2.871387079E-2,-9.925428391E0
1.081068059E1,-1.292124242E-1,-2.871387079E-2,-9.925428391E0
1.082034715E1,-1.148554832E-1,-3.349951655E-2,-9.925428391E0
1.083001371E1,-1.004985496E-1,-2.871387079E-2,-9.930213928E0
1.083968027E1,-1.052841991E-1,-1.914258115E-2,-9.930213928E0
1.084934684E1,-1.100698411E-1,-2.871387079E-2,-9.925428391E0
1.085901335E1,-1.052841991E-1,-2.392822690E-2,-9.944570541E0
1.086867991E1,-9.571290761E-2,-2.871387079E-2,-9.925428391E0
1.087834647E1,-1.100698411E-1,-2.871387079E-2,-9.934999466E0
1.088801304E1,-1.052841991E-1,-2.871387079E-2,-9.925428391E0
1.089767960E1,-1.100698411E-1,-4.785645381E-2,-9.930213928E0
1.090734616E1,-1.052841991E-1,-2.871387079E-2,-9.939785004E0
1.091701272E1,-1.100698411E-1,-3.349951655E-2,-9.944570541E0
1.092667928E1,-1.100698411E-1,-2.871387079E-2,-9.934999466E0
1.093634585E1,-1.052841991E-1,-4.307080805E-2,-9.915857315E0
1.094601241E1,-1.004985496E-1,-2.871387079E-2,-9.925428391E0
1.095567897E1,-9.571290761E-2,-3.349951655E-2,-9.934999466E0
1.096534548E1,-1.052841991E-1,-2.871387079E-2,-9.925428391E0
1.097501205E1,-1.100698411E-1,-3.828516230E-2,-9.915857315E0
1.098467861E1,-1.196411327E-1,-4.307080805E-2,-9.925428391E0
1.099434512E1,-1.052841991E-1,-2.871387079E-2,-9.930213928E0
1.100401173E1,-1.100698411E-1,-2.871387079E-2,-9.934999466E0
1.101367830E1,-1.004985496E-1,-2.392822690E-2,-9.925428391E0
1.102334486E1,-1.052841991E-1,-2.871387079E-2,-9.930213928E0
1.103301142E1,-1.148554832E-1,-2.392822690E-2,-9.934999466E0
1.104267798E1,-1.100698411E-1,-4.307080805E-2,-9.934999466E0
1.105234454E1,-9.571290761E-2,-4.307080805E-2,-9.934999466E0
1.106201111E1,-1.148554832E-1,-3.828516230E-2,-9.934999466E0
1.107167767E1,-9.571290761E-2,-3.349951655E-2,-9.934999466E0
1.108134423E1,-1.148554832E-1,-3.349951655E-2,-9.930213928E0
1.109101080E1,-1.052841991E-1,-3.349951655E-2,-9.954142570E0
1.110067736E1,-9.571290761E-2,-5.264209956E-2,-9.925428391E0
1.111034387E1,-1.244267747E-1,-3.828516230E-2,-9.939785004E0
1.112001048E1,-1.100698411E-1,-3.828516230E-2,-9.939785004E0
1.112967705E1,-1.148554832E-1,-2.392822690E-2,-9.930213928E0
1.113934361E1,-1.196411327E-1,-3.349951655E-2,-9.915857315E0
1.114901017E1,-1.052841991E-1,-4.307080805E-2,-9.939785004E0
1.115867673E1,-1.148554832E-1,-2.871387079E-2,-9.939785004E0
1.116834330E1,-1.052841991E-1,-2.871387079E-2,-9.944570541E0
1.117800986E1,-1.004985496E-1,-2.392822690E-2,-9.934999466E0
1.118767642E1,-1.004985496E-1,-4.307080805E-2,-9.939785004E0
1.119734298E1,-1.004985496E-1,-4.785645381E-2,-9.939785004E0
1.120700954E1,-1.052841991E-1,-2.392822690E-2,-9.930213928E0
1.121667611E1,-1.244267747E-1,-1.914258115E-2,-9.934999466E0
1.122634267E1,-9.571290761E-2,-2.392822690E-2,-9.939785004E0
1.123600923E1,-1.100698411E-1,-3.349951655E-2,-9.930213928E0
1.124567580E1,-9.092725813E-2,-2.871387079E-2,-9.944570541E0
1.125534236E1,-1.052841991E-1,-3.349951655E-2,-9.925428391E0
1.126500892E1,-1.244267747E-1,-3.349951655E-2,-9.939785004E0
1.127467548E1,-1.052841991E-1,-3.349951655E-2,-9.944570541E0
1.128434204E1,-1.100698411E-1,-2.871387079E-2,-9.949356079E0
1.129400861E1,-1.148554832E-1,-4.785645381E-2,-9.930213928E0
1.130367522E1,-1.052841991E-1,-2.392822690E-2,-9.930213928E0
1.131334178E1,-9.571290761E-2,-3.349951655E-2,-9.949356079E0
1.132300835E1,-1.100698411E-1,-3.349951655E-2,-9.939785004E0
1.133267491E1,-1.244267747E-1,-9.571290575E-3,-9.944570541E0
1.134234147E1,-1.100698411E-1,-2.871387079E-2,-9.944570541E0
1.135200804E1,-1.244267747E-1,-2.871387079E-2,-9.939785004E0
1.136167460E1,-1.100698411E-1,-4.307080805E-2,-9.930213928E0
1.137134116E1,-1.052841991E-1,-1.435693540E-2,-9.930213928E0
1.138100772E1,-9.092725813E-2,-3.828516230E-2,-9.939785004E0
1.139067429E1,-1.004985496E-1,-3.349951655E-2,-9.934999466E0
1.140034085E1,-1.148554832E-1,-1.914258115E-2,-9.944570541E0
1.141000746E1,-1.004985496E-1,-2.871387079E-2,-9.944570541E0
1.141967402E1,-1.100698411E-1,-2.392822690E-2,-9.939785004E0
1.142934059E1,-1.100698411E-1,-2.392822690E-2,-9.934999466E0
1.143900715E1,-1.148554832E-1,-2.871387079E-2,-9.930213928E0
1.144867371E1,-1.004985496E-1,-2.871387079E-2,-9.939785004E0
1.145834027E1,-1.100698411E-1,-2.871387079E-2,-9.944570541E0
1.146800684E1,-1.100698411E-1,-3.349951655E-2,-9.958928108E0
1.147767340E1,-9.571290761E-2,-3.828516230E-2,-9.939785004E0
1.148733996E1,-1.100698411E-1,-3.828516230E-2,-9.934999466E0
1.149700658E1,-1.292124242E-1,-3.828516230E-2,-9.930213928E0
1.150667314E1,-1.052841991E-1,-3.349951655E-2,-9.939785004E0
1.151633970E1,-1.196411327E-1,-2.392822690E-2,-9.934999466E0
1.152600626E1,-1.100698411E-1,-3.828516230E-2,-9.954142570E0
1.153567283E1,-1.148554832E-1,-3.828516230E-2,-9.939785004E0
1.154533939E1,-1.100698411E-1,-3.828516230E-2,-9.939785004E0
1.155500600E1,-9.092725813E-2,-1.914258115E-2,-9.944570541E0
1.156467257E1,-1.052841991E-1,-4.307080805E-2,-9.930213928E0
1.157433913E1,-1.100698411E-1,-2.871387079E-2,-9.934999466E0
1.158400569E1,-1.100698411E-1,-5.264209956E-2,-9.939785004E0
1.159367225E1,-1.052841991E-1,-3.828516230E-2,-9.939785004E0
1.160333882E1,-1.004985496E-1,-4.307080805E-2,-9.944570541E0
1.161300543E1,-1.004985496E-1,-4.307080805E-2,-9.954142570E0
1.162267199E1,-9.092725813E-2,-3.828516230E-2,-9.934999466E0
1.163233856E1,-1.004985496E-1,-4.307080805E-2,-9.949356079E0
1.164200512E1,-1.004985496E-1,-4.785645381E-2,-9.944570541E0
1.165167168E1,-1.148554832E-1,-2.392822690E-2,-9.949356079E0
1.166133824E1,-9.092725813E-2,-1.914258115E-2,-9.944570541E0
1.167100486E1,-9.092725813E-2,-2.871387079E-2,-9.944570541E0
1.168067142E1,-1.004985496E-1,-3.349951655E-2,-9.949356079E0
1.169033798E1,-1.052841991E-1,-3.349951655E-2,-9.939785004E0
1.170000454E1,-9.571290761E-2,-2.871387079E-2,-9.944570541E0
1.170967111E1,-1.052841991E-1,-3.349951655E-2,-9.949356079E0
1.171933772E1,-1.196411327E-1,-3.828516230E-2,-9.939785004E0
1.172900428E1,-1.100698411E-1,-2.871387079E-2,-9.939785004E0
1.173867085E1,-1.100698411E-1,-3.349951655E-2,-9.939785004E0
1.174833741E1,-1.004985496E-1,-1.914258115E-2,-9.958928108E0
1.175800397E1,-8.614161611E-2,-2.392822690E-2,-9.934999466E0
1.176767059E1,-1.052841991E-1,-3.349951655E-2,-9.944570541E0
1.177733715E1,-9.571290761E-2,-2.871387079E-2,-9.944570541E0
1.178700371E1,-1.148554832E-1,-2.871387079E-2,-9.939785004E0
1.179667027E1,-1.052841991E-1,-2.871387079E-2,-9.949356079E0
1.180633684E1,-1.148554832E-1,-2.871387079E-2,-9.963713646E0
1.181600345E1,-1.004985496E-1,-1.914258115E-2,-9.939785004E0
1.182567001E1,-1.052841991E-1,-2.871387079E-2,-9.954142570E0
1.183533658E1,-1.052841991E-1,-3.349951655E-2,-9.949356079E0
1.184500314E1,-1.052841991E-1,-3.349951655E-2,-9.934999466E0
1.185466975E1,-1.196411327E-1,-4.307080805E-2,-9.949356079E0
1.186433632E1,-1.148554832E-1,-3.349951655E-2,-9.949356079E0
1.187400288E1,-1.004985496E-1,-3.828516230E-2,-9.939785004E0
1.188366944E1,-1.052841991E-1,-4.307080805E-2,-9.939785004E0
1.189333600E1,-1.100698411E-1,-3.349951655E-2,-9.954142570E0
1.190300262E1,-1.100698411E-1,-4.307080805E-2,-9.949356079E0
1.191266918E1,-1.196411327E-1,-3.828516230E-2,-9.934999466E0
1.192233574E1,-1.004985496E-1,-4.307080805E-2,-9.939785004E0
1.193200231E1,-1.052841991E-1,-4.307080805E-2,-9.958928108E0
1.194166892E1,-1.196411327E-1,-1.914258115E-2,-9.954142570E0
1.195133548E1,-1.100698411E-1,-4.785645381E-2,-9.934999466E0
1.196100204E1,-1.196411327E-1,-1.914258115E-2,-9.944570541E0
1.197066861E1,-9.571290761E-2,-3.349951655E-2,-9.930213928E0
1.198033522E1,-1.052841991E-1,-1.435693540E-2,-9.944570541E0
1.199000178E1,-1.292124242E-1,-1.914258115E-2,-9.944570541E0
1.199966835E1,-1.100698411E-1,-2.871387079E-2,-9.954142570E0
1.200933491E1,-1.004985496E-1,-3.828516230E-2,-9.944570541E0
1.201900152E1,-1.100698411E-1,-3.828516230E-2,-9.949356079E0
1.202866809E1,-1.196411327E-1,-2.871387079E-2,-9.944570541E0
1.203833465E1,-1.004985496E-1,-1.914258115E-2,-9.934999466E0
1.204800121E1,-1.052841991E-1,-2.871387079E-2,-9.954142570E0
1.205766783E1,-1.100698411E-1,-1.914258115E-2,-9.934999466E0
1.206733439E1,-1.148554832E-1,-1.914258115E-2,-9.944570541E0
1.207700095E1,-1.052841991E-1,-3.349951655E-2,-9.939785004E0
1.208666751E1,-1.100698411E-1,-2.871387079E-2,-9.934999466E0
1.209633413E1,-1.100698411E-1,-3.349951655E-2,-9.944570541E0
1.210600069E1,-1.004985496E-1,-3.828516230E-2,-9.939785004E0
1.211566725E1,-1.100698411E-1,-2.392822690E-2,-9.939785004E0
1.212533387E1,-1.148554832E-1,-3.349951655E-2,-9.944570541E0
1.213500043E1,-1.004985496E-1,-2.392822690E-2,-9.944570541E0
1.214466699E1,-1.004985496E-1,-2.392822690E-2,-9.944570541E0
1.215433356E1,-1.100698411E-1,-2.871387079E-2,-9.949356079E0
1.216400017E1,-1.004985496E-1,-2.871387079E-2,-9.949356079E0
1.217366673E1,-1.148554832E-1,-3.828516230E-2,-9.939785004E0
1.218333330E1,-1.196411327E-1,-1.914258115E-2,-9.939785004E0
1.219299986E1,-9.092725813E-2,-2.392822690E-2,-9.930213928E0
1.220266647E1,-1.148554832E-1,-2.871387079E-2,-9.954142570E0
1.221233304E1,-1.244267747E-1,-2.392822690E-2,-9.954142570E0
1.222199960E1,-1.100698411E-1,-2.871387079E-2,-9.944570541E0
1.223166616E1,-1.004985496E-1,-2.871387079E-2,-9.944570541E0
1.224133277E1,-1.244267747E-1,-2.392822690E-2,-9.954142570E0
1.225099934E1,-1.100698411E-1,-2.392822690E-2,-9.944570541E0
1.226066590E1,-1.148554832E-1,-2.871387079E-2,-9.944570541E0
1.227033251E1,-1.004985496E-1,-4.307080805E-2,-9.939785004E0
1.227999908E1,-1.100698411E-1,-3.349951655E-2,-9.954142570E0
1.228966564E1,-1.244267747E-1,-3.828516230E-2,-9.949356079E0
1.229933220E1,-1.004985496E-1,-3.349951655E-2,-9.954142570E0
1.230899882E1,-1.148554832E-1,-2.871387079E-2,-9.958928108E0
1.231866538E1,-1.244267747E-1,-1.914258115E-2,-9.944570541E0
1.232833194E1,-1.052841991E-1,-2.871387079E-2,-9.949356079E0
1.233799856E1,-1.052841991E-1,-2.871387079E-2,-9.939785004E0
1.234766512E1,-1.052841991E-1,-3.349951655E-2,-9.949356079E0
1.235733168E1,-9.092725813E-2,-3.349951655E-2,-9.939785004E0
1.236699830E1,-1.148554832E-1,-3.349951655E-2,-9.949356079E0
1.237666486E1,-1.100698411E-1,-2.871387079E-2,-9.944570541E0
1.238633142E1,-1.100698411E-1,-3.349951655E-2,-9.944570541E0
1.239599798E1,-1.196411327E-1,-3.349951655E-2,-9.963713646E0
1.240566460E1,-1.100698411E-1,-2.871387079E-2,-9.939785004E0
1.241533116E1,-1.148554832E-1,-2.871387079E-2,-9.954142570E0
1.242499772E1,-1.196411327E-1,-1.914258115E-2,-9.939785004E0
1.243466434E1,-9.571290761E-2,-3.828516230E-2,-9.954142570E0
1.244433090E1,-1.052841991E-1,-3.349951655E-2,-9.949356079E0
1.245399746E1,-1.100698411E-1,-1.914258115E-2,-9.958928108E0
1.246366402E1,-1.052841991E-1,-2.871387079E-2,-9.949356079E0
1.247333064E1,-1.052841991E-1,-3.349951655E-2,-9.939785004E0
1.248299720E1,-1.292124242E-1,-3.349951655E-2,-9.944570541E0
1.249266376E1,-1.004985496E-1,-4.307080805E-2,-9.954142570E0
1.250233038E1,-1.100698411E-1,-3.828516230E-2,-9.949356079E0
1.251199694E1,-1.004985496E-1,-4.785645381E-2,-9.949356079E0
1.252166350E1,-1.196411327E-1,-6.699903309E-2,-9.944570541E0
1.253133012E1,-9.571290761E-2,-4.307080805E-2,-9.949356079E0
1.254099668E1,-1.004985496E-1,-3.828516230E-2,-9.949356079E0
1.255066324E1,-1.004985496E-1,-3.828516230E-2,-9.949356079E0
1.256032981E1,-1.196411327E-1,-3.349951655E-2,-9.949356079E0
1.256999642E1,-1.196411327E-1,-3.349951655E-2,-9.954142570E0
1.257966298E1,-1.148554832E-1,-1.914258115E-2,-9.949356079E0
1.258932954E1,-1.100698411E-1,-3.828516230E-2,-9.930213928E0
1.259899616E1,-1.100698411E-1,-1.914258115E-2,-9.954142570E0
1.260866272E1,-1.148554832E-1,-3.828516230E-2,-9.944570541E0
1.261832929E1,-1.052841991E-1,-2.392822690E-2,-9.949356079E0
1.262799590E1,-1.100698411E-1,-3.349951655E-2,-9.949356079E0
1.263766246E1,-1.196411327E-1,-2.392822690E-2,-9.944570541E0
1.264732902E1,-1.004985496E-1,-2.871387079E-2,-9.944570541E0
1.265699559E1,-9.571290761E-2,-3.349951655E-2,-9.939785004E0
1.266666220E1,-1.196411327E-1,-1.914258115E-2,-9.944570541E0
1.267632876E1,-1.148554832E-1,-4.785645381E-2,-9.939785004E0
1.268599533E1,-1.148554832E-1,-1.435693540E-2,-9.939785004E0
1.269566194E1,-1.292124242E-1,-3.828516230E-2,-9.944570541E0
1.270532850E1,-1.052841991E-1,-4.307080805E-2,-9.944570541E0
1.271499507E1,-1.148554832E-1,-9.571290575E-3,-9.949356079E0
1.272466163E1,-1.100698411E-1,-4.307080805E-2,-9.949356079E0
1.273432824E1,-1.004985496E-1,-4.307080805E-2,-9.944570541E0
1.274399475E1,-1.196411327E-1,-3.349951655E-2,-9.958928108E0
1.275366137E1,-1.196411327E-1,-2.392822690E-2,-9.944570541E0
1.276332798E1,-1.052841991E-1,-3.349951655E-2,-9.944570541E0
1.277299455E1,-1.148554832E-1,-3.828516230E-2,-9.954142570E0
1.278266111E1,-1.196411327E-1,-1.914258115E-2,-9.958928108E0
1.279232767E1,-1.052841991E-1,-2.871387079E-2,-9.944570541E0
1.280199429E1,-9.571290761E-2,-1.914258115E-2,-9.954142570E0
1.281166085E1,-1.004985496E-1,-3.828516230E-2,-9.949356079E0
1.282132741E1,-1.100698411E-1,-4.307080805E-2,-9.949356079E0
1.283099402E1,-1.100698411E-1,-3.349951655E-2,-9.954142570E0
1.284066059E1,-9.571290761E-2,-3.828516230E-2,-9.954142570E0
1.285032715E1,-1.052841991E-1,-1.435693540E-2,-9.963713646E0
1.285999376E1,-1.196411327E-1,-2.392822690E-2,-9.949356079E0
1.286966033E1,-1.244267747E-1,-4.307080805E-2,-9.944570541E0
1.287932689E1,-1.052841991E-1,-4.307080805E-2,-9.958928108E0
1.288899345E1,-1.244267747E-1,-4.307080805E-2,-9.958928108E0
1.289866007E1,-1.052841991E-1,-3.828516230E-2,-9.944570541E0
1.290832663E1,-1.100698411E-1,-3.828516230E-2,-9.954142570E0
1.291799319E1,-1.148554832E-1,-2.392822690E-2,-9.949356079E0
1.292765981E1,-1.196411327E-1,-1.914258115E-2,-9.954142570E0
1.293732632E1,-1.052841991E-1,-2.392822690E-2,-9.958928108E0
1.294699293E1,-1.100698411E-1,-3.828516230E-2,-9.954142570E0
1.295665954E1,-1.052841991E-1,-1.914258115E-2,-9.944570541E0
1.296632611E1,-1.148554832E-1,-3.349951655E-2,-9.939785004E0
1.297599267E1,-1.148554832E-1,-2.871387079E-2,-9.949356079E0
1.298565923E1,-1.148554832E-1,-2.871387079E-2,-9.949356079E0
1.299532585E1,-1.148554832E-1,-0.000000000E0,-9.944570541E0
1.300499241E1,-1.004985496E-1,-4.785645381E-2,-9.963713646E0
1.301465897E1,-1.052841991E-1,-1.914258115E-2,-9.949356079E0
1.302432559E1,-1.196411327E-1,-3.349951655E-2,-9.954142570E0
1.303399215E1,-1.100698411E-1,-3.349951655E-2,-9.958928108E0
1.304365871E1,-1.100698411E-1,-3.349951655E-2,-9.954142570E0
1.305332527E1,-1.292124242E-1,-2.392822690E-2,-9.949356079E0
1.306299189E1,-1.148554832E-1,-3.349951655E-2,-9.958928108E0
1.307265845E1,-1.052841991E-1,-4.307080805E-2,-9.954142570E0
1.308232501E1,-1.196411327E-1,-3.828516230E-2,-9.954142570E0
1.309199163E1,-1.052841991E-1,-3.828516230E-2,-9.954142570E0
1.310165819E1,-9.571290761E-2,-3.349951655E-2,-9.954142570E0
1.311132475E1,-1.052841991E-1,-3.349951655E-2,-9.968499184E0
1.312099132E1,-1.196411327E-1,-2.871387079E-2,-9.949356079E0
1.313065793E1,-9.571290761E-2,-1.914258115E-2,-9.944570541E0
1.314032449E1,-1.100698411E-1,-3.349951655E-2,-9.954142570E0
1.314999106E1,-1.100698411E-1,-3.349951655E-2,-9.944570541E0
1.315965767E1,-1.148554832E-1,-4.785645381E-2,-9.949356079E0
1.316932423E1,-1.148554832E-1,-3.828516230E-2,-9.958928108E0
1.317899080E1,-1.148554832E-1,-3.828516230E-2,-9.958928108E0
1.318865736E1,-1.292124242E-1,-3.349951655E-2,-9.968499184E0
1.319832392E1,-9.092725813E-2,-3.349951655E-2,-9.958928108E0
1.320799054E1,-1.100698411E-1,-3.349951655E-2,-9.958928108E0
1.321765710E1,-1.148554832E-1,-2.392822690E-2,-9.963713646E0
1.322732366E1,-1.196411327E-1,-3.349951655E-2,-9.963713646E0
1.323699027E1,-1.100698411E-1,-4.307080805E-2,-9.949356079E0
1.324665684E1,-1.100698411E-1,-3.828516230E-2,-9.958928108E0
1.325632340E1,-1.292124242E-1,-4.307080805E-2,-9.954142570E0
1.326599001E1,-1.100698411E-1,-2.871387079E-2,-9.968499184E0
1.327565658E1,-1.148554832E-1,-3.828516230E-2,-9.939785004E0
1.328532314E1,-1.004985496E-1,-2.392822690E-2,-9.954142570E0
1.329498970E1,-1.052841991E-1,-3.828516230E-2,-9.963713646E0
1.330465632E1,-1.052841991E-1,-3.349951655E-2,-9.949356079E0
1.331432283E1,-1.052841991E-1,-3.349951655E-2,-9.944570541E0
1.332398944E1,-1.100698411E-1,-3.349951655E-2,-9.949356079E0
1.333365595E1,-1.148554832E-1,-3.828516230E-2,-9.958928108E0
1.334332262E1,-1.100698411E-1,-4.307080805E-2,-9.949356079E0
1.335298918E1,-1.052841991E-1,-2.871387079E-2,-9.954142570E0
1.336265574E1,-1.004985496E-1,-3.349951655E-2,-9.963713646E0
1.337232231E1,-1.244267747E-1,-2.871387079E-2,-9.963713646E0
1.338198892E1,-1.052841991E-1,-2.871387079E-2,-9.958928108E0
1.339165548E1,-1.100698411E-1,-2.392822690E-2,-9.963713646E0
1.340132204E1,-1.100698411E-1,-4.307080805E-2,-9.954142570E0
1.341098856E1,-1.100698411E-1,-4.307080805E-2,-9.963713646E0
1.342065522E1,-1.100698411E-1,-2.871387079E-2,-9.949356079E0
1.343032178E1,-1.100698411E-1,-3.828516230E-2,-9.963713646E0
1.343998835E1,-1.100698411E-1,-3.828516230E-2,-9.944570541E0
1.344965491E1,-1.052841991E-1,-3.349951655E-2,-9.954142570E0
1.345932152E1,-1.148554832E-1,-1.914258115E-2,-9.963713646E0
1.346898809E1,-1.100698411E-1,-2.871387079E-2,-9.958928108E0
1.347865465E1,-1.052841991E-1,-2.871387079E-2,-9.944570541E0
1.348832126E1,-1.052841991E-1,-2.871387079E-2,-9.954142570E0
1.349798783E1,-1.100698411E-1,-3.349951655E-2,-9.954142570E0
1.350765439E1,-1.100698411E-1,-3.349951655E-2,-9.939785004E0
1.351732095E1,-1.148554832E-1,-2.871387079E-2,-9.949356079E0
1.352698751E1,-1.100698411E-1,-2.392822690E-2,-9.968499184E0
1.353665413E1,-1.196411327E-1,-2.871387079E-2,-9.954142570E0
1.354632069E1,-1.100698411E-1,-4.307080805E-2,-9.958928108E0
1.355598725E1,-1.052841991E-1,-1.914258115E-2,-9.949356079E0
1.356565382E1,-9.571290761E-2,-3.828516230E-2,-9.949356079E0
1.357532043E1,-1.148554832E-1,-2.871387079E-2,-9.954142570E0
1.358498699E1,-1.004985496E-1,-4.307080805E-2,-9.963713646E0
1.359465356E1,-1.100698411E-1,-3.828516230E-2,-9.954142570E0
1.360432012E1,-1.052841991E-1,-3.349951655E-2,-9.963713646E0
1.361398668E1,-1.196411327E-1,-3.828516230E-2,-9.944570541E0
1.362365324E1,-1.148554832E-1,-1.435693540E-2,-9.949356079E0
1.363331986E1,-1.052841991E-1,-3.349951655E-2,-9.958928108E0
1.364298637E1,-1.100698411E-1,-3.349951655E-2,-9.958928108E0
1.365265298E1,-1.004985496E-1,-2.392822690E-2,-9.939785004E0
1.366231960E1,-1.292124242E-1,-1.914258115E-2,-9.954142570E0
1.367198616E1,-1.100698411E-1,-3.828516230E-2,-9.968499184E0
1.368165272E1,-1.244267747E-1,-1.914258115E-2,-9.934999466E0
1.369131928E1,-1.052841991E-1,-2.871387079E-2,-9.949356079E0
1.370098590E1,-1.052841991E-1,-4.307080805E-2,-9.963713646E0
1.371065246E1,-1.100698411E-1,-2.392822690E-2,-9.954142570E0
1.372031902E1,-1.100698411E-1,-2.392822690E-2,-9.954142570E0
1.372998559E1,-1.148554832E-1,-2.392822690E-2,-9.954142570E0
1.373965220E1,-1.004985496E-1,-2.871387079E-2,-9.954142570E0
1.374931876E1,-9.092725813E-2,-3.349951655E-2,-9.954142570E0
1.375898533E1,-1.052841991E-1,-4.307080805E-2,-9.958928108E0
1.376865189E1,-1.004985496E-1,-4.785645381E-2,-9.949356079E0
1.377831845E1,-1.052841991E-1,-3.828516230E-2,-9.958928108E0
1.378798507E1,-1.052841991E-1,-3.349951655E-2,-9.958928108E0
1.379765163E1,-1.100698411E-1,-3.349951655E-2,-9.954142570E0
1.380731819E1,-1.100698411E-1,-3.349951655E-2,-9.944570541E0
1.381698475E1,-9.571290761E-2,-3.349951655E-2,-9.954142570E0
1.382665137E1,-1.052841991E-1,-2.871387079E-2,-9.958928108E0
1.383631793E1,-1.100698411E-1,-3.828516230E-2,-9.949356079E0
1.384598449E1,-1.004985496E-1,-3.349951655E-2,-9.954142570E0
1.385565106E1,-1.052841991E-1,-3.828516230E-2,-9.954142570E0
1.386531762E1,-1.004985496E-1,-2.392822690E-2,-9.949356079E0
1.387498423E1,-1.100698411E-1,-4.307080805E-2,-9.949356079E0
1.388465080E1,-1.052841991E-1,-3.828516230E-2,-9.954142570E0
1.389431736E1,-1.052841991E-1,-2.392822690E-2,-9.954142570E0
1.390398392E1,-1.148554832E-1,-3.349951655E-2,-9.954142570E0
1.391365048E1,-1.100698411E-1,-3.828516230E-2,-9.954142570E0
1.392331710E1,-1.052841991E-1,-3.828516230E-2,-9.954142570E0
1.393298366E1,-1.244267747E-1,-2.392822690E-2,-9.934999466E0
1.394265022E1,-1.196411327E-1,-2.392822690E-2,-9.949356079E0
1.395231678E1,-1.100698411E-1,-4.785645287E-3,-9.949356079E0
1.396198335E1,-1.100698411E-1,-2.392822690E-2,-9.954142570E0
1.397164996E1,-1.100698411E-1,-4.307080805E-2,-9.954142570E0
1.398131652E1,-1.196411327E-1,-3.349951655E-2,-9.954142570E0
1.399098309E1,-1.100698411E-1,-2.871387079E-2,-9.963713646E0
1.400064965E1,-1.148554832E-1,-2.871387079E-2,-9.954142570E0
1.401031621E1,-1.292124242E-1,-1.914258115E-2,-9.958928108E0
1.401998277E1,-1.148554832E-1,-2.392822690E-2,-9.954142570E0
1.402964934E1,-1.052841991E-1,-2.392822690E-2,-9.949356079E0
1.403931595E1,-9.571290761E-2,-2.392822690E-2,-9.949356079E0
1.404898251E1,-1.052841991E-1,-2.871387079E-2,-9.958928108E0
1.405864908E1,-1.100698411E-1,-4.307080805E-2,-9.954142570E0
1.406831564E1,-1.196411327E-1,-2.392822690E-2,-9.949356079E0
1.407798225E1,-1.052841991E-1,-4.307080805E-2,-9.949356079E0
1.408764882E1,-1.004985496E-1,-1.914258115E-2,-9.958928108E0
1.409731538E1,-1.196411327E-1,-2.871387079E-2,-9.958928108E0
1.410698194E1,-1.148554832E-1,-1.914258115E-2,-9.954142570E0
1.411664850E1,-1.100698411E-1,-3.349951655E-2,-9.958928108E0
1.412631507E1,-1.100698411E-1,-4.307080805E-2,-9.954142570E0
1.413598168E1,-1.148554832E-1,-4.785645381E-2,-9.944570541E0
1.414564824E1,-9.092725813E-2,-3.349951655E-2,-9.949356079E0
1.415531481E1,-1.052841991E-1,-2.392822690E-2,-9.944570541E0
1.416498137E1,-1.148554832E-1,-3.828516230E-2,-9.944570541E0
1.417464793E1,-1.148554832E-1,-3.349951655E-2,-9.944570541E0
1.418431455E1,-1.004985496E-1,-2.392822690E-2,-9.944570541E0
1.419398111E1,-1.100698411E-1,-3.349951655E-2,-9.954142570E0
1.420364767E1,-1.004985496E-1,-1.914258115E-2,-9.944570541E0
1.421331423E1,-1.004985496E-1,-2.871387079E-2,-9.949356079E0
1.422298080E1,-1.148554832E-1,-2.392822690E-2,-9.944570541E0
1.423264736E1,-1.100698411E-1,-2.871387079E-2,-9.963713646E0
1.424231423E1,-1.100698411E-1,-4.785645381E-2,-9.944570541E0
1.425198054E1,-1.292124242E-1,-2.871387079E-2,-9.954142570E0
1.426164710E1,-1.196411327E-1,-1.914258115E-2,-9.949356079E0
1.427131366E1,-1.052841991E-1,-3.828516230E-2,-9.944570541E0
1.428098022E1,-1.004985496E-1,-2.392822690E-2,-9.954142570E0
1.429064684E1,-1.052841991E-1,-4.785645381E-2,-9.968499184E0
1.430031335E1,-1.148554832E-1,-3.349951655E-2,-9.963713646E0
1.430997996E1,-1.196411327E-1,-4.785645381E-2,-9.944570541E0
1.431964652E1,-1.148554832E-1,-3.828516230E-2,-9.958928108E0
1.432931309E1,-1.100698411E-1,-3.828516230E-2,-9.944570541E0
1.433897965E1,-1.148554832E-1,-2.871387079E-2,-9.939785004E0
1.434864621E1,-1.004985496E-1,-2.871387079E-2,-9.958928108E0
1.435831277E1,-1.052841991E-1,-4.785645381E-2,-9.954142570E0
1.436797939E1,-9.092725813E-2,-2.392822690E-2,-9.939785004E0
1.437764595E1,-1.196411327E-1,-3.349951655E-2,-9.944570541E0
1.438731251E1,-1.148554832E-1,-3.828516230E-2,-9.944570541E0
1.439697908E1,-1.052841991E-1,-2.871387079E-2,-9.963713646E0
1.440664564E1,-1.100698411E-1,-3.349951655E-2,-9.958928108E0
1.441631225E1,-1.100698411E-1,-2.392822690E-2,-9.949356079E0
1.442597882E1,-1.148554832E-1,-3.349951655E-2,-9.949356079E0
1.443564538E1,-1.196411327E-1,-2.871387079E-2,-9.958928108E0
1.444531194E1,-1.052841991E-1,-3.828516230E-2,-9.954142570E0
1.445497850E1,-1.244267747E-1,-3.349951655E-2,-9.944570541E0
1.446464507E1,-1.052841991E-1,-4.307080805E-2,-9.949356079E0
1.447431163E1,-9.571290761E-2,-3.349951655E-2,-9.944570541E0
1.448397819E1,-1.052841991E-1,-3.349951655E-2,-9.944570541E0
1.449364481E1,-1.100698411E-1,-3.349951655E-2,-9.954142570E0
1.450331137E1,-1.052841991E-1,-4.785645381E-2,-9.958928108E0
1.451297793E1,-1.004985496E-1,-3.349951655E-2,-9.944570541E0
1.452264449E1,-9.571290761E-2,-1.435693540E-2,-9.954142570E0
1.453231106E1,-1.339980662E-1,-2.871387079E-2,-9.949356079E0
1.454197762E1,-1.148554832E-1,-3.828516230E-2,-9.963713646E0
1.455164423E1,-1.052841991E-1,-2.392822690E-2,-9.968499184E0
1.456131080E1,-1.148554832E-1,-2.871387079E-2,-9.949356079E0
1.457097736E1,-1.100698411E-1,-2.392822690E-2,-9.949356079E0
1.458064392E1,-1.244267747E-1,-2.871387079E-2,-9.934999466E0
1.459031048E1,-1.100698411E-1,-3.828516230E-2,-9.944570541E0
1.459997705E1,-1.148554832E-1,-2.871387079E-2,-9.949356079E0
1.460964361E1,-1.004985496E-1,-3.349951655E-2,-9.954142570E0
1.461931022E1,-1.244267747E-1,-2.392822690E-2,-9.949356079E0
1.462897678E1,-1.148554832E-1,-4.785645381E-2,-9.949356079E0
1.463864335E1,-1.052841991E-1,-2.392822690E-2,-9.949356079E0
1.464830991E1,-1.100698411E-1,-3.349951655E-2,-9.949356079E0
1.465797647E1,-1.100698411E-1,-2.871387079E-2,-9.954142570E0
1.466764304E1,-1.052841991E-1,-2.871387079E-2,-9.958928108E0
1.467730960E1,-1.100698411E-1,-3.349951655E-2,-9.954142570E0
1.468697621E1,-1.052841991E-1,-3.349951655E-2,-9.963713646E0
1.469664277E1,-9.571290761E-2,-3.349951655E-2,-9.944570541E0
1.470630934E1,-1.052841991E-1,-3.828516230E-2,-9.958928108E0
1.471597590E1,-1.196411327E-1,-2.871387079E-2,-9.954142570E0
1.472564246E1,-1.100698411E-1,-4.785645381E-2,-9.958928108E0
1.473530902E1,-9.571290761E-2,-4.307080805E-2,-9.954142570E0
1.474497559E1,-1.052841991E-1,-3.828516230E-2,-9.949356079E0
1.475464220E1,-9.571290761E-2,-1.914258115E-2,-9.944570541E0
1.476430876E1,-1.004985496E-1,-1.914258115E-2,-9.958928108E0
1.477397533E1,-1.052841991E-1,-2.392822690E-2,-9.944570541E0
1.478364189E1,-1.052841991E-1,-1.914258115E-2,-9.944570541E0
1.479330845E1,-9.571290761E-2,-2.871387079E-2,-9.954142570E0
1.480297501E1,-1.196411327E-1,-3.828516230E-2,-9.949356079E0
1.481264158E1,-1.196411327E-1,-3.349951655E-2,-9.949356079E0
1.482230819E1,-1.148554832E-1,-3.349951655E-2,-9.939785004E0
1.483197475E1,-1.244267747E-1,-2.392822690E-2,-9.949356079E0
1.484164132E1,-1.052841991E-1,-3.828516230E-2,-9.944570541E0
1.485130788E1,-1.004985496E-1,-3.828516230E-2,-9.944570541E0
1.486097444E1,-1.052841991E-1,-1.914258115E-2,-9.934999466E0
1.487064100E1,-1.052841991E-1,-2.392822690E-2,-9.949356079E0
1.488030757E1,-1.100698411E-1,-3.828516230E-2,-9.954142570E0
1.488997418E1,-1.052841991E-1,-3.828516230E-2,-9.954142570E0
1.489964074E1,-1.100698411E-1,-3.349951655E-2,-9.954142570E0
1.490930731E1,-1.052841991E-1,-4.307080805E-2,-9.949356079E0
1.491897387E1,-1.148554832E-1,-2.392822690E-2,-9.954142570E0
1.492864043E1,-1.148554832E-1,-1.914258115E-2,-9.954142570E0
1.493830699E1,-1.004985496E-1,-3.349951655E-2,-9.949356079E0
1.494797356E1,-1.148554832E-1,-3.349951655E-2,-9.944570541E0
1.495764012E1,-1.148554832E-1,-4.785645381E-2,-9.944570541E0
1.496730673E1,-1.196411327E-1,-2.392822690E-2,-9.939785004E0
1.497697330E1,-1.052841991E-1,-3.828516230E-2,-9.954142570E0
1.498663986E1,-1.004985496E-1,-2.392822690E-2,-9.958928108E0
1.499630642E1,-1.100698411E-1,-1.914258115E-2,-9.949356079E0
1.500597298E1,-1.052841991E-1,-2.871387079E-2,-9.958928108E0
1.501563954E1,-1.100698411E-1,-2.871387079E-2,-9.944570541E0
1.502530611E1,-1.052841991E-1,-2.392822690E-2,-9.944570541E0
1.503497267E1,-1.148554832E-1,-4.785645381E-2,-9.939785004E0
1.504463928E1,-1.100698411E-1,-4.307080805E-2,-9.939785004E0
1.505430585E1,-1.292124242E-1,-3.349951655E-2,-9.963713646E0
1.506397241E1,-1.244267747E-1,-1.435693540E-2,-9.954142570E0
1.507363897E1,-1.244267747E-1,-2.871387079E-2,-9.944570541E0
1.508330554E1,-1.148554832E-1,-3.828516230E-2,-9.949356079E0
1.509297210E1,-1.148554832E-1,-2.392822690E-2,-9.934999466E0
1.510263871E1,-1.196411327E-1,-3.349951655E-2,-9.944570541E0
1.511230527E1,-1.004985496E-1,-2.871387079E-2,-9.949356079E0
1.512197184E1,-1.100698411E-1,-3.828516230E-2,-9.934999466E0
1.513163840E1,-1.004985496E-1,-3.828516230E-2,-9.949356079E0
1.514130496E1,-1.292124242E-1,-3.349951655E-2,-9.958928108E0
1.515097152E1,-1.148554832E-1,-2.871387079E-2,-9.949356079E0
1.516063809E1,-9.571290761E-2,-3.349951655E-2,-9.954142570E0
1.517030465E1,-9.571290761E-2,-1.914258115E-2,-9.949356079E0
1.517997126E1,-1.052841991E-1,-2.392822690E-2,-9.944570541E0
1.518963783E1,-1.196411327E-1,-2.871387079E-2,-9.939785004E0
1.519930439E1,-1.100698411E-1,-3.349951655E-2,-9.944570541E0
1.520897095E1,-1.148554832E-1,-3.349951655E-2,-9.963713646E0
1.521863751E1,-1.148554832E-1,-3.349951655E-2,-9.949356079E0
1.522830408E1,-9.571290761E-2,-3.828516230E-2,-9.944570541E0
1.523797064E1,-1.100698411E-1,-4.307080805E-2,-9.949356079E0
1.524763725E1,-1.100698411E-1,-3.828516230E-2,-9.944570541E0
1.525730382E1,-1.100698411E-1,-3.349951655E-2,-9.944570541E0
1.526697038E1,-1.148554832E-1,-3.349951655E-2,-9.954142570E0
1.527663694E1,-1.052841991E-1,-3.349951655E-2,-9.939785004E0
1.528630350E1,-1.100698411E-1,-1.914258115E-2,-9.949356079E0
1.529597007E1,-1.148554832E-1,-2.392822690E-2,-9.949356079E0
1.530563663E1,-1.052841991E-1,-2.871387079E-2,-9.944570541E0
1.531530324E1,-1.148554832E-1,-2.871387079E-2,-9.944570541E0
1.532496981E1,-9.092725813E-2,-2.871387079E-2,-9.954142570E0
1.533463637E1,-1.100698411E-1,-3.349951655E-2,-9.968499184E0
1.534430293E1,-1.052841991E-1,-2.392822690E-2,-9.954142570E0
1.535396949E1,-1.148554832E-1,-4.307080805E-2,-9.949356079E0
1.536363606E1,-1.052841991E-1,-2.871387079E-2,-9.949356079E0
1.537330267E1,-1.004985496E-1,-2.871387079E-2,-9.939785004E0
1.538296923E1,-1.100698411E-1,-3.828516230E-2,-9.949356079E0
1.539263580E1,-1.100698411E-1,-1.914258115E-2,-9.949356079E0
1.540230236E1,-1.196411327E-1,-3.349951655E-2,-9.954142570E0
1.541196892E1,-1.244267747E-1,-2.871387079E-2,-9.939785004E0
1.542163548E1,-1.196411327E-1,-1.914258115E-2,-9.949356079E0
1.543130204E1,-1.148554832E-1,-3.828516230E-2,-9.939785004E0
1.544096861E1,-1.052841991E-1,-3.828516230E-2,-9.954142570E0
1.545063517E1,-1.052841991E-1,-4.785645381E-2,-9.949356079E0
1.546030178E1,-1.196411327E-1,-2.871387079E-2,-9.954142570E0
1.546996835E1,-1.004985496E-1,-3.349951655E-2,-9.944570541E0
1.547963491E1,-1.100698411E-1,-3.828516230E-2,-9.958928108E0
1.548930142E1,-1.052841991E-1,-2.871387079E-2,-9.954142570E0
1.549896804E1,-8.614161611E-2,-3.828516230E-2,-9.963713646E0
1.550863460E1,-1.052841991E-1,-3.828516230E-2,-9.954142570E0
1.551830121E1,-1.244267747E-1,-1.435693540E-2,-9.939785004E0
1.552796777E1,-1.052841991E-1,-2.871387079E-2,-9.958928108E0
1.553763434E1,-1.100698411E-1,-3.828516230E-2,-9.958928108E0
1.554730090E1,-1.052841991E-1,-3.828516230E-2,-9.949356079E0
1.555696746E1,-1.100698411E-1,-2.392822690E-2,-9.954142570E0
1.556663402E1,-1.004985496E-1,-2.392822690E-2,-9.949356079E0
1.557630064E1,-1.004985496E-1,-2.871387079E-2,-9.958928108E0
1.558596720E1,-1.052841991E-1,-1.435693540E-2,-9.958928108E0
1.559563376E1,-1.052841991E-1,-4.307080805E-2,-9.963713646E0
1.560530033E1,-1.100698411E-1,-3.349951655E-2,-9.939785004E0
1.561496725E1,-1.100698411E-1,-3.828516230E-2,-9.954142570E0
1.562463345E1,-1.052841991E-1,-3.349951655E-2,-9.939785004E0
1.563430001E1,-1.052841991E-1,-4.785645381E-2,-9.949356079E0
1.564396663E1,-1.244267747E-1,-3.828516230E-2,-9.939785004E0
1.565363319E1,-1.052841991E-1,-2.871387079E-2,-9.939785004E0
1.566329970E1,-1.004985496E-1,-2.392822690E-2,-9.958928108E0
1.567296632E1,-1.100698411E-1,-3.828516230E-2,-9.958928108E0
1.568263288E1,-1.052841991E-1,-2.392822690E-2,-9.944570541E0
1.569229944E1,-1.100698411E-1,-3.349951655E-2,-9.939785004E0
1.570196600E1,-1.100698411E-1,-3.349951655E-2,-9.954142570E0
1.571163251E1,-1.100698411E-1,-2.871387079E-2,-9.949356079E0
1.572129918E1,-9.092725813E-2,-2.871387079E-2,-9.944570541E0
1.573096574E1,-1.100698411E-1,-2.392822690E-2,-9.934999466E0
1.574063231E1,-1.100698411E-1,-4.307080805E-2,-9.930213928E0
1.575029887E1,-9.092725813E-2,-9.571290575E-3,-9.958928108E0
1.575996543E1,-9.092725813E-2,-2.392822690E-2,-9.949356079E0
1.576963199E1,-1.148554832E-1,-4.785645381E-2,-9.944570541E0
1.577929861E1,-1.244267747E-1,-2.392822690E-2,-9.954142570E0
1.578896517E1,-1.244267747E-1,-4.785645381E-2,-9.944570541E0
1.579863173E1,-1.100698411E-1,-4.307080805E-2,-9.958928108E0
1.580829830E1,-1.052841991E-1,-3.828516230E-2,-9.939785004E0
1.581796486E1,-1.004985496E-1,-2.871387079E-2,-9.939785004E0
1.582763142E1,-1.148554832E-1,-2.871387079E-2,-9.949356079E0
1.583729798E1,-1.244267747E-1,-2.392822690E-2,-9.944570541E0
1.584696460E1,-1.052841991E-1,-2.392822690E-2,-9.930213928E0
1.585663116E1,-1.292124242E-1,-3.828516230E-2,-9.939785004E0
1.586629772E1,-1.196411327E-1,-4.785645381E-2,-9.954142570E0
1.587596428E1,-1.052841991E-1,-1.435693540E-2,-9.954142570E0
1.588563085E1,-1.148554832E-1,-2.871387079E-2,-9.963713646E0
1.589529741E1,-1.052841991E-1,-2.871387079E-2,-9.949356079E0
1.590496397E1,-1.004985496E-1,-4.307080805E-2,-9.958928108E0
1.591463059E1,-1.100698411E-1,-3.828516230E-2,-9.968499184E0
1.592429715E1,-1.148554832E-1,-4.307080805E-2,-9.963713646E0
1.593396366E1,-1.148554832E-1,-2.871387079E-2,-9.944570541E0
1.594363027E1,-1.244267747E-1,-3.349951655E-2,-9.949356079E0
1.595329684E1,-1.196411327E-1,-4.307080805E-2,-9.934999466E0
1.596296340E1,-1.148554832E-1,-3.349951655E-2,-9.944570541E0
1.597262996E1,-9.571290761E-2,-2.871387079E-2,-9.958928108E0
1.598229658E1,-1.004985496E-1,-2.871387079E-2,-9.954142570E0
1.599196314E1,-1.148554832E-1,-3.349951655E-2,-9.963713646E0
1.600162970E1,-1.196411327E-1,-3.828516230E-2,-9.949356079E0
1.601129626E1,-1.148554832E-1,-2.392822690E-2,-9.949356079E0
1.602096283E1,-1.100698411E-1,-2.392822690E-2,-9.954142570E0
1.603062939E1,-1.196411327E-1,-2.392822690E-2,-9.949356079E0
1.604029595E1,-1.052841991E-1,-3.349951655E-2,-9.944570541E0
1.604996257E1,-1.196411327E-1,-1.914258115E-2,-9.944570541E0
1.605962913E1,-1.100698411E-1,-2.871387079E-2,-9.949356079E0
1.606929569E1,-1.052841991E-1,-2.871387079E-2,-9.963713646E0
1.607896225E1,-1.004985496E-1,-2.392822690E-2,-9.954142570E0
1.608862882E1,-1.148554832E-1,-2.871387079E-2,-9.949356079E0
1.609829538E1,-1.004985496E-1,-2.871387079E-2,-9.949356079E0
1.610796194E1,-1.052841991E-1,-1.914258115E-2,-9.934999466E0
1.611762850E1,-9.571290761E-2,-2.392822690E-2,-9.939785004E0
1.612729512E1,-1.100698411E-1,-2.871387079E-2,-9.949356079E0
1.613696168E1,-1.148554832E-1,-2.392822690E-2,-9.944570541E0
1.614662824E1,-1.100698411E-1,-2.392822690E-2,-9.954142570E0
1.615629481E1,-9.571290761E-2,-3.828516230E-2,-9.963713646E0
1.616596137E1,-1.100698411E-1,-2.871387079E-2,-9.949356079E0
1.617562793E1,-9.571290761E-2,-3.349951655E-2,-9.944570541E0
1.618529449E1,-1.052841991E-1,-2.392822690E-2,-9.949356079E0
1.619496106E1,-1.052841991E-1,-2.871387079E-2,-9.944570541E0
1.620462767E1,-1.196411327E-1,-2.871387079E-2,-9.944570541E0
1.621429423E1,-1.004985496E-1,-2.871387079E-2,-9.958928108E0
1.622396080E1,-1.052841991E-1,-4.307080805E-2,-9.949356079E0
1.623362736E1,-1.052841991E-1,-1.914258115E-2,-9.944570541E0
1.624329392E1,-1.004985496E-1,-1.914258115E-2,-9.944570541E0
1.625296048E1,-1.052841991E-1,-3.349951655E-2,-9.944570541E0
1.626262705E1,-1.100698411E-1,-5.264209956E-2,-9.958928108E0
1.627229366E1,-1.196411327E-1,-2.871387079E-2,-9.958928108E0
1.628196022E1,-1.004985496E-1,-3.828516230E-2,-9.958928108E0
1.629162679E1,-1.004985496E-1,-2.871387079E-2,-9.949356079E0
1.630129335E1,-1.148554832E-1,-4.785645381E-2,-9.963713646E0
1.631095991E1,-9.571290761E-2,-2.871387079E-2,-9.949356079E0
1.632062647E1,-1.100698411E-1,-9.571290575E-3,-9.944570541E0
1.633029304E1,-1.148554832E-1,-2.871387079E-2,-9.949356079E0
1.633995960E1,-1.100698411E-1,-3.349951655E-2,-9.958928108E0
1.634962621E1,-1.004985496E-1,-2.871387079E-2,-9.944570541E0
1.635929277E1,-1.244267747E-1,-1.435693540E-2,-9.949356079E0
1.636895934E1,-1.148554832E-1,-4.307080805E-2,-9.958928108E0
1.637862590E1,-1.004985496E-1,-3.828516230E-2,-9.958928108E0
1.638829246E1,-1.100698411E-1,-2.871387079E-2,-9.944570541E0
1.639795902E1,-1.196411327E-1,-1.914258115E-2,-9.949356079E0
1.640762559E1,-1.004985496E-1,-9.571290575E-3,-9.958928108E0
1.641729220E1,-1.004985496E-1,-4.307080805E-2,-9.958928108E0
1.642695876E1,-1.052841991E-1,-9.571290575E-3,-9.949356079E0
1.643662533E1,-9.571290761E-2,-2.871387079E-2,-9.944570541E0
1.644629189E1,-1.148554832E-1,-4.785645381E-2,-9.934999466E0
1.645595845E1,-1.052841991E-1,-2.871387079E-2,-9.949356079E0
1.646562501E1,-1.148554832E-1,-2.871387079E-2,-9.954142570E0
1.647529158E1,-1.148554832E-1,-2.392822690E-2,-9.949356079E0
1.648495814E1,-1.148554832E-1,-2.392822690E-2,-9.939785004E0
1.649462475E1,-1.196411327E-1,-3.828516230E-2,-9.963713646E0
1.650429132E1,-1.004985496E-1,-4.307080805E-2,-9.949356079E0
1.651395788E1,-1.148554832E-1,-4.785645381E-2,-9.949356079E0
1.652362444E1,-1.052841991E-1,-1.914258115E-2,-9.949356079E0
1.653329100E1,-1.148554832E-1,-3.349951655E-2,-9.954142570E0
1.654295757E1,-1.052841991E-1,-4.307080805E-2,-9.963713646E0
1.655262413E1,-1.052841991E-1,-1.914258115E-2,-9.958928108E0
1.656229069E1,-1.100698411E-1,-2.871387079E-2,-9.954142570E0
1.657195725E1,-1.244267747E-1,-3.828516230E-2,-9.949356079E0
1.658162387E1,-1.148554832E-1,-3.349951655E-2,-9.963713646E0
1.659129043E1,-1.004985496E-1,-3.349951655E-2,-9.954142570E0
1.660095699E1,-1.148554832E-1,-3.828516230E-2,-9.949356079E0
1.661062356E1,-1.004985496E-1,-4.785645381E-2,-9.958928108E0
1.662029012E1,-1.100698411E-1,-3.828516230E-2,-9.954142570E0
1.662995668E1,-1.052841991E-1,-3.349951655E-2,-9.954142570E0
1.663962324E1,-1.148554832E-1,-5.742774159E-2,-9.954142570E0
1.664928981E1,-1.148554832E-1,-2.871387079E-2,-9.954142570E0
1.665895637E1,-1.004985496E-1,-4.307080805E-2,-9.958928108E0
1.666862293E1,-9.092725813E-2,-3.828516230E-2,-9.949356079E0
1.667828955E1,-1.004985496E-1,-2.392822690E-2,-9.958928108E0
1.668795611E1,-1.148554832E-1,-3.349951655E-2,-9.963713646E0
1.669762267E1,-9.571290761E-2,-4.307080805E-2,-9.934999466E0
1.670728923E1,-1.196411327E-1,-3.828516230E-2,-9.949356079E0
1.671695580E1,-1.148554832E-1,-3.828516230E-2,-9.954142570E0
1.672662236E1,-1.148554832E-1,-2.392822690E-2,-9.949356079E0
1.673628892E1,-1.052841991E-1,-3.828516230E-2,-9.944570541E0
1.674595548E1,-8.614161611E-2,-3.349951655E-2,-9.939785004E0
1.675562205E1,-9.571290761E-2,-2.871387079E-2,-9.954142570E0
1.676528861E1,-1.196411327E-1,-1.914258115E-2,-9.949356079E0
1.677495522E1,-1.292124242E-1,-2.392822690E-2,-9.949356079E0
1.678462179E1,-1.052841991E-1,-3.349951655E-2,-9.949356079E0
1.679428835E1,-1.004985496E-1,-1.435693540E-2,-9.939785004E0
1.680395491E1,-1.100698411E-1,-3.349951655E-2,-9.949356079E0
1.681362147E1,-1.100698411E-1,-2.392822690E-2,-9.949356079E0
1.682328804E1,-1.196411327E-1,-3.828516230E-2,-9.954142570E0
1.683295460E1,-1.196411327E-1,-2.871387079E-2,-9.949356079E0
1.684262116E1,-1.196411327E-1,-1.435693540E-2,-9.954142570E0
1.685228772E1,-1.100698411E-1,-3.828516230E-2,-9.949356079E0
1.686195428E1,-1.052841991E-1,-3.349951655E-2,-9.949356079E0
1.687162085E1,-1.004985496E-1,-2.871387079E-2,-9.958928108E0
1.688128746E1,-1.004985496E-1,-2.871387079E-2,-9.963713646E0
1.689095402E1,-1.148554832E-1,-4.307080805E-2,-9.968499184E0
1.690062059E1,-1.100698411E-1,-3.349951655E-2,-9.939785004E0
1.691028715E1,-9.571290761E-2,-3.828516230E-2,-9.958928108E0
1.691995371E1,-1.148554832E-1,-3.349951655E-2,-9.954142570E0
1.692962027E1,-1.100698411E-1,-2.871387079E-2,-9.963713646E0
1.693928684E1,-1.100698411E-1,-2.392822690E-2,-9.968499184E0
1.694895340E1,-1.004985496E-1,-4.307080805E-2,-9.954142570E0
1.695861996E1,-1.052841991E-1,-5.742774159E-2,-9.949356079E0
1.696828652E1,-1.004985496E-1,-5.742774159E-2,-9.949356079E0
1.697795309E1,-1.052841991E-1,-3.349951655E-2,-9.949356079E0
1.698761965E1,-1.196411327E-1,-2.392822690E-2,-9.939785004E0
1.699728621E1,-1.148554832E-1,-0.000000000E0,-9.968499184E0
1.700695283E1,-1.100698411E-1,-2.871387079E-2,-9.949356079E0
1.701661939E1,-1.148554832E-1,-3.349951655E-2,-9.954142570E0
1.702628595E1,-1.100698411E-1,-9.571290575E-3,-9.968499184E0
1.703595251E1,-1.004985496E-1,-2.871387079E-2,-9.949356079E0
1.704561908E1,-1.148554832E-1,-1.914258115E-2,-9.954142570E0
1.705528564E1,-1.004985496E-1,-2.392822690E-2,-9.954142570E0
1.706495220E1,-1.052841991E-1,-2.392822690E-2,-9.944570541E0
1.707461876E1,-1.100698411E-1,-1.914258115E-2,-9.949356079E0
1.708428533E1,-1.244267747E-1,-2.871387079E-2,-9.954142570E0
1.709395189E1,-1.148554832E-1,-2.392822690E-2,-9.958928108E0
1.710361845E1,-1.052841991E-1,-2.871387079E-2,-9.944570541E0
1.711328501E1,-1.196411327E-1,-4.307080805E-2,-9.958928108E0
1.712295158E1,-1.004985496E-1,-3.349951655E-2,-9.949356079E0
1.713261814E1,-1.148554832E-1,-3.828516230E-2,-9.954142570E0
1.714228470E1,-1.052841991E-1,-2.871387079E-2,-9.958928108E0
1.715195132E1,-1.052841991E-1,-1.914258115E-2,-9.954142570E0
1.716161783E1,-1.148554832E-1,-2.392822690E-2,-9.949356079E0
1.717128444E1,-1.148554832E-1,-1.914258115E-2,-9.934999466E0
1.718095100E1,-1.100698411E-1,-2.871387079E-2,-9.954142570E0
1.719061757E1,-1.052841991E-1,-1.914258115E-2,-9.954142570E0
1.720028413E1,-1.148554832E-1,-3.349951655E-2,-9.930213928E0
1.720995069E1,-1.196411327E-1,-1.435693540E-2,-9.949356079E0
1.721961725E1,-9.571290761E-2,-2.871387079E-2,-9.944570541E0
1.722928382E1,-1.052841991E-1,-2.392822690E-2,-9.944570541E0
1.723895038E1,-1.148554832E-1,-3.349951655E-2,-9.954142570E0
1.724861694E1,-1.052841991E-1,-1.435693540E-2,-9.949356079E0
1.725828350E1,-1.004985496E-1,-1.914258115E-2,-9.973284721E0
1.726795007E1,-1.148554832E-1,-3.349951655E-2,-9.939785004E0
1.727761663E1,-1.100698411E-1,-3.349951655E-2,-9.968499184E0
1.728728319E1,-1.052841991E-1,-4.785645381E-2,-9.968499184E0
1.729694975E1,-1.148554832E-1,-2.392822690E-2,-9.958928108E0
1.730661632E1,-1.100698411E-1,-3.828516230E-2,-9.939785004E0
1.731628288E1,-1.052841991E-1,-4.307080805E-2,-9.949356079E0
1.732594944E1,-1.148554832E-1,-1.914258115E-2,-9.958928108E0
1.733561600E1,-1.244267747E-1,-4.307080805E-2,-9.958928108E0
1.734528257E1,-1.052841991E-1,-3.349951655E-2,-9.954142570E0
1.735494913E1,-1.100698411E-1,-4.785645381E-2,-9.958928108E0
1.736461569E1,-1.244267747E-1,-2.871387079E-2,-9.954142570E0
1.737428231E1,-1.052841991E-1,-4.307080805E-2,-9.954142570E0
1.738394882E1,-1.004985496E-1,-2.871387079E-2,-9.963713646E0
1.739361538E1,-1.100698411E-1,-2.392822690E-2,-9.949356079E0
1.740328199E1,-1.148554832E-1,-2.871387079E-2,-9.958928108E0
1.741294856E1,-1.100698411E-1,-9.571290575E-3,-9.954142570E0
1.742261512E1,-1.100698411E-1,-5.264209956E-2,-9.963713646E0
1.743228168E1,-1.004985496E-1,-3.349951655E-2,-9.954142570E0
1.744194824E1,-1.100698411E-1,-3.828516230E-2,-9.949356079E0
1.745161481E1,-1.148554832E-1,-4.307080805E-2,-9.949356079E0
1.746128137E1,-9.571290761E-2,-2.392822690E-2,-9.958928108E0
1.747094793E1,-9.571290761E-2,-1.914258115E-2,-9.968499184E0
1.748061449E1,-1.052841991E-1,-3.349951655E-2,-9.958928108E0
1.749028106E1,-1.196411327E-1,-3.349951655E-2,-9.958928108E0
1.749994762E1,-1.052841991E-1,-2.392822690E-2,-9.954142570E0
1.750961418E1,-1.244267747E-1,-3.828516230E-2,-9.944570541E0
1.751928074E1,-1.100698411E-1,-3.349951655E-2,-9.968499184E0
1.752894731E1,-1.148554832E-1,-3.828516230E-2,-9.944570541E0
1.753861387E1,-1.052841991E-1,-4.307080805E-2,-9.944570541E0
1.754828043E1,-1.148554832E-1,-3.349951655E-2,-9.949356079E0
1.755794699E1,-1.100698411E-1,-3.349951655E-2,-9.954142570E0
1.756761356E1,-9.571290761E-2,-3.349951655E-2,-9.963713646E0
1.757728012E1,-1.004985496E-1,-3.828516230E-2,-9.963713646E0
1.758694668E1,-1.052841991E-1,-2.392822690E-2,-9.963713646E0
1.759661324E1,-1.148554832E-1,-3.349951655E-2,-9.949356079E0
1.760627981E1,-9.571290761E-2,-2.871387079E-2,-9.939785004E0
1.761594637E1,-1.052841991E-1,-3.828516230E-2,-9.939785004E0
1.762561293E1,-1.244267747E-1,-3.349951655E-2,-9.954142570E0
1.763527949E1,-1.100698411E-1,-2.392822690E-2,-9.949356079E0
1.764494606E1,-1.052841991E-1,-2.871387079E-2,-9.954142570E0
1.765461262E1,-1.052841991E-1,-3.349951655E-2,-9.949356079E0
1.766427918E1,-1.052841991E-1,-2.392822690E-2,-9.949356079E0
1.767394574E1,-1.196411327E-1,-3.349951655E-2,-9.949356079E0
1.768361231E1,-1.148554832E-1,-1.914258115E-2,-9.939785004E0
1.769327887E1,-1.196411327E-1,-3.828516230E-2,-9.934999466E0
1.770294543E1,-1.052841991E-1,-2.392822690E-2,-9.954142570E0
1.771261199E1,-1.004985496E-1,-9.571290575E-3,-9.954142570E0
1.772227856E1,-1.100698411E-1,-2.871387079E-2,-9.949356079E0
1.773194512E1,-1.052841991E-1,-3.828516230E-2,-9.944570541E0
1.774161168E1,-1.196411327E-1,-2.871387079E-2,-9.954142570E0
1.775127824E1,-1.052841991E-1,-2.871387079E-2,-9.954142570E0
1.776094481E1,-1.100698411E-1,-4.307080805E-2,-9.954142570E0
1.777061137E1,-1.004985496E-1,-3.349951655E-2,-9.954142570E0
1.778027793E1,-1.052841991E-1,-3.349951655E-2,-9.954142570E0
1.778994449E1,-9.571290761E-2,-1.914258115E-2,-9.963713646E0
1.779961106E1,-1.004985496E-1,-2.392822690E-2,-9.958928108E0
1.780927762E1,-1.196411327E-1,-2.871387079E-2,-9.968499184E0
1.781894418E1,-1.196411327E-1,-3.828516230E-2,-9.949356079E0
1.782861074E1,-1.052841991E-1,-1.914258115E-2,-9.963713646E0
1.783827731E1,-1.244267747E-1,-4.785645381E-2,-9.934999466E0
1.784794387E1,-1.004985496E-1,-2.871387079E-2,-9.934999466E0
1.785761043E1,-1.148554832E-1,-4.307080805E-2,-9.954142570E0
1.786727694E1,-1.148554832E-1,-2.871387079E-2,-9.963713646E0
1.787694350E1,-1.004985496E-1,-2.392822690E-2,-9.968499184E0
1.788661007E1,-1.196411327E-1,-2.392822690E-2,-9.949356079E0
1.789627663E1,-1.148554832E-1,-2.871387079E-2,-9.954142570E0
1.790594319E1,-1.196411327E-1,-2.871387079E-2,-9.968499184E0
1.791560975E1,-1.148554832E-1,-2.392822690E-2,-9.968499184E0
1.792527632E1,-1.148554832E-1,-9.571290575E-3,-9.954142570E0
1.793494283E1,-1.196411327E-1,-4.307080805E-2,-9.968499184E0
1.794460944E1,-1.148554832E-1,-4.307080805E-2,-9.949356079E0
1.795427600E1,-1.052841991E-1,-1.914258115E-2,-9.973284721E0
1.796394257E1,-1.148554832E-1,-3.349951655E-2,-9.954142570E0
1.797360913E1,-1.196411327E-1,-2.392822690E-2,-9.958928108E0
1.798327569E1,-1.100698411E-1,-4.785645381E-2,-9.949356079E0
1.799294225E1,-1.052841991E-1,-3.828516230E-2,-9.954142570E0
1.800260882E1,-1.004985496E-1,-2.871387079E-2,-9.954142570E0
1.801227538E1,-1.004985496E-1,-3.828516230E-2,-9.968499184E0
1.802194194E1,-1.196411327E-1,-3.828516230E-2,-9.954142570E0
1.803160850E1,-1.004985496E-1,-1.435693540E-2,-9.949356079E0
1.804127507E1,-1.052841991E-1,-1.914258115E-2,-9.949356079E0
1.805094163E1,-1.148554832E-1,-3.828516230E-2,-9.954142570E0
1.806060819E1,-1.148554832E-1,-2.871387079E-2,-9.949356079E0
1.807027475E1,-1.196411327E-1,-3.828516230E-2,-9.958928108E0
1.807994132E1,-1.148554832E-1,-1.914258115E-2,-9.949356079E0
1.808960788E1,-1.052841991E-1,-4.785645381E-2,-9.949356079E0
1.809927439E1,-9.571290761E-2,-2.871387079E-2,-9.954142570E0
1.810894095E1,-1.196411327E-1,-3.349951655E-2,-9.954142570E0
1.811860751E1,-1.052841991E-1,-2.871387079E-2,-9.949356079E0
1.812827408E1,-1.196411327E-1,-2.871387079E-2,-9.954142570E0
1.813794064E1,-1.148554832E-1,-3.349951655E-2,-9.958928108E0
1.814760720E1,-9.571290761E-2,-3.349951655E-2,-9.958928108E0
1.815727376E1,-1.052841991E-1,-3.349951655E-2,-9.954142570E0
1.816694033E1,-9.571290761E-2,-3.349951655E-2,-9.944570541E0
1.817660689E1,-1.148554832E-1,-2.392822690E-2,-9.949356079E0
1.818627345E1,-1.100698411E-1,-3.349951655E-2,-9.949356079E0
1.819594001E1,-1.100698411E-1,-1.435693540E-2,-9.958928108E0
1.820560658E1,-1.052841991E-1,-4.307080805E-2,-9.949356079E0
1.821527304E1,-1.052841991E-1,-2.392822690E-2,-9.949356079E0
1.822493965E1,-1.052841991E-1,-2.871387079E-2,-9.954142570E0
1.823460621E1,-1.148554832E-1,-2.871387079E-2,-9.954142570E0
1.824427277E1,-1.100698411E-1,-2.392822690E-2,-9.949356079E0
1.825393934E1,-1.196411327E-1,-2.871387079E-2,-9.944570541E0
1.826360590E1,-1.196411327E-1,-3.349951655E-2,-9.944570541E0
1.827327246E1,-1.100698411E-1,-3.828516230E-2,-9.944570541E0
1.828293902E1,-9.571290761E-2,-2.392822690E-2,-9.949356079E0
1.829260559E1,-1.052841991E-1,-4.785645381E-2,-9.954142570E0
1.830227215E1,-1.244267747E-1,-2.871387079E-2,-9.949356079E0
1.831193871E1,-1.100698411E-1,-2.871387079E-2,-9.949356079E0
1.832160527E1,-1.148554832E-1,-2.392822690E-2,-9.954142570E0
1.833127179E1,-1.100698411E-1,-2.871387079E-2,-9.958928108E0
1.834093835E1,-1.052841991E-1,-2.871387079E-2,-9.954142570E0
1.835060491E1,-9.571290761E-2,-4.307080805E-2,-9.954142570E0
1.836027147E1,-9.571290761E-2,-2.392822690E-2,-9.958928108E0
1.836993804E1,-1.052841991E-1,-1.435693540E-2,-9.958928108E0
1.837960460E1,-1.052841991E-1,-2.871387079E-2,-9.949356079E0
1.838927116E1,-1.196411327E-1,-3.349951655E-2,-9.963713646E0
1.839893772E1,-1.052841991E-1,-1.914258115E-2,-9.958928108E0
1.840860429E1,-1.100698411E-1,-2.392822690E-2,-9.958928108E0
1.841827085E1,-1.148554832E-1,-2.392822690E-2,-9.958928108E0
1.842793741E1,-1.100698411E-1,-5.264209956E-2,-9.968499184E0
1.843760392E1,-1.148554832E-1,-3.828516230E-2,-9.973284721E0
1.844727048E1,-1.196411327E-1,-3.828516230E-2,-9.968499184E0
1.845693704E1,-1.148554832E-1,-2.871387079E-2,-9.958928108E0
1.846660361E1,-1.052841991E-1,-2.871387079E-2,-9.963713646E0
1.847627017E1,-9.571290761E-2,-3.828516230E-2,-9.968499184E0
1.848593673E1,-1.100698411E-1,-2.392822690E-2,-9.954142570E0
1.849560330E1,-1.004985496E-1,-2.871387079E-2,-9.944570541E0
1.850526981E1,-1.052841991E-1,-3.349951655E-2,-9.958928108E0
1.851493637E1,-1.052841991E-1,-3.828516230E-2,-9.958928108E0
1.852460293E1,-1.196411327E-1,-2.871387079E-2,-9.954142570E0
1.853426949E1,-1.004985496E-1,-1.435693540E-2,-9.954142570E0
1.854393606E1,-1.244267747E-1,-3.349951655E-2,-9.934999466E0
1.855360262E1,-1.052841991E-1,-1.435693540E-2,-9.954142570E0
1.856326918E1,-1.148554832E-1,-2.871387079E-2,-9.958928108E0
1.857293574E1,-1.148554832E-1,-2.871387079E-2,-9.968499184E0
1.858260225E1,-1.292124242E-1,-2.871387079E-2,-9.954142570E0
1.859226882E1,-1.148554832E-1,-1.914258115E-2,-9.949356079E0
1.860193538E1,-1.100698411E-1,-3.349951655E-2,-9.954142570E0
1.861160194E1,-1.196411327E-1,-3.349951655E-2,-9.949356079E0
1.862126850E1,-9.571290761E-2,-1.435693540E-2,-9.958928108E0
1.863093507E1,-1.052841991E-1,-2.871387079E-2,-9.944570541E0
1.864060163E1,-1.004985496E-1,-1.914258115E-2,-9.954142570E0
1.865026819E1,-1.148554832E-1,-3.349951655E-2,-9.958928108E0
1.865993470E1,-1.100698411E-1,-3.828516230E-2,-9.944570541E0
1.866960126E1,-1.148554832E-1,-4.307080805E-2,-9.958928108E0
1.867926783E1,-1.244267747E-1,-1.914258115E-2,-9.963713646E0
1.868893439E1,-1.196411327E-1,-3.828516230E-2,-9.954142570E0
1.869860095E1,-1.100698411E-1,-2.392822690E-2,-9.958928108E0
1.870826751E1,-9.092725813E-2,-1.914258115E-2,-9.949356079E0
1.871793408E1,-1.100698411E-1,-9.571290575E-3,-9.963713646E0
1.872760059E1,-9.571290761E-2,-2.871387079E-2,-9.958928108E0
1.873726715E1,-1.052841991E-1,-2.392822690E-2,-9.954142570E0
1.874693371E1,-1.244267747E-1,-2.871387079E-2,-9.949356079E0
1.875660027E1,-1.244267747E-1,-3.349951655E-2,-9.954142570E0
1.876626684E1,-1.052841991E-1,-3.349951655E-2,-9.944570541E0
1.877593340E1,-1.292124242E-1,-3.349951655E-2,-9.944570541E0
1.878559991E1,-1.148554832E-1,-2.871387079E-2,-9.934999466E0
1.879526647E1,-9.571290761E-2,-2.392822690E-2,-9.973284721E0
1.880493304E1,-1.004985496E-1,-2.871387079E-2,-9.954142570E0
1.881459960E1,-1.100698411E-1,-3.828516230E-2,-9.958928108E0
1.882426616E1,-1.148554832E-1,-2.392822690E-2,-9.958928108E0
1.883393272E1,-1.148554832E-1,-3.349951655E-2,-9.949356079E0
1.884359923E1,-1.148554832E-1,-3.349951655E-2,-9.963713646E0
1.885326580E1,-1.100698411E-1,-2.392822690E-2,-9.939785004E0
1.886293236E1,-1.052841991E-1,-2.871387079E-2,-9.958928108E0
1.887259892E1,-1.100698411E-1,-3.828516230E-2,-9.958928108E0
1.888226548E1,-1.004985496E-1,-2.871387079E-2,-9.954142570E0
1.889193204E1,-1.004985496E-1,-1.914258115E-2,-9.954142570E0
1.890159856E1,-9.092725813E-2,-1.435693540E-2,-9.949356079E0
1.891126512E1,-1.196411327E-1,-9.571290575E-3,-9.958928108E0
1.892093168E1,-1.148554832E-1,-2.392822690E-2,-9.954142570E0
1.893059824E1,-8.614161611E-2,-1.435693540E-2,-9.944570541E0
1.894026481E1,-9.571290761E-2,-3.349951655E-2,-9.954142570E0
1.894993132E1,-9.571290761E-2,-3.349951655E-2,-9.963713646E0
1.895959788E1,-1.148554832E-1,-2.871387079E-2,-9.958928108E0
1.896926444E1,-1.100698411E-1,-2.392822690E-2,-9.949356079E0
1.897893100E1,-9.571290761E-2,-3.349951655E-2,-9.954142570E0
1.898859757E1,-1.100698411E-1,-1.435693540E-2,-9.954142570E0
1.899826413E1,-1.052841991E-1,-2.871387079E-2,-9.954142570E0
1.900793064E1,-1.052841991E-1,-1.914258115E-2,-9.949356079E0
1.901759720E1,-1.148554832E-1,-2.871387079E-2,-9.958928108E0
1.902726376E1,-1.148554832E-1,-3.349951655E-2,-9.939785004E0
1.903693033E1,-1.148554832E-1,-1.914258115E-2,-9.963713646E0
1.904659689E1,-1.100698411E-1,-2.871387079E-2,-9.954142570E0
1.905626340E1,-1.148554832E-1,-4.785645381E-2,-9.954142570E0
1.906592996E1,-1.148554832E-1,-3.349951655E-2,-9.954142570E0
1.907559652E1,-1.100698411E-1,-3.349951655E-2,-9.944570541E0
1.908526309E1,-1.052841991E-1,-4.307080805E-2,-9.949356079E0
1.909492965E1,-1.052841991E-1,-3.828516230E-2,-9.958928108E0
1.910459616E1,-1.052841991E-1,-3.349951655E-2,-9.954142570E0
1.911426272E1,-1.004985496E-1,-2.871387079E-2,-9.958928108E0
1.912392929E1,-1.004985496E-1,-2.871387079E-2,-9.949356079E0
1.913359585E1,-1.148554832E-1,-4.307080805E-2,-9.944570541E0
1.914326236E1,-1.100698411E-1,-3.828516230E-2,-9.939785004E0
1.915292892E1,-1.004985496E-1,-4.307080805E-2,-9.944570541E0
1.916259548E1,-1.244267747E-1,-2.392822690E-2,-9.958928108E0
